ACCELEROMETER X (m/s²),ACCELEROMETER Y (m/s²),ACCELEROMETER Z (m/s²),GYROSCOPE X (rad/s),GYROSCOPE Y (rad/s),GYROSCOPE Z (rad/s),MAGNETIC FIELD X (μT),MAGNETIC FIELD Y (μT),MAGNETIC FIELD Z (μT),LOCATION Latitude : ,LOCATION Longitude : ,LOCATION Altitude ( m),LOCATION Altitude-google ( m),LOCATION Speed ( Kmh),LOCATION Accuracy ( m),LOCATION ORIENTATION (°),Satellites in range,Time since start in ms ,YYYY-MO-DD HH-MI-SS_SSS
-1.119873,2.39177,11.011108,0.227341,-0.249039,0.07991,5.3604,-35.3729,-31.3232,26.881237,88.80416,101.9757,NaN,0.0,3.216,,0 / 26,3016,2021-06-14 11:12:15:058
-0.171783,2.090103,9.263351,-0.003738,0.409927,0.21138,3.5141,-36.8225,-31.4026,26.881237,88.80416,101.9757,NaN,0.0,3.216,,12 / 20,3517,2021-06-14 11:12:15:559
-0.430344,0.782867,9.938507,-0.085403,-0.063141,0.04129,3.5141,-33.4518,-37.0285,26.881237,88.80416,101.9757,NaN,0.0,3.216,,12 / 20,4015,2021-06-14 11:12:16:057
-0.392044,-0.102982,9.708664,0.0,-0.005447,0.11293,2.9861,-30.0842,-42.2394,26.881237,88.80416,101.9757,NaN,0.0,3.216,,12 / 20,4515,2021-06-14 11:12:16:557
-0.396835,-0.012009,9.761337,9.2E-5,5.95E-4,-0.002487,2.9861,-29.8431,-43.7988,26.881237,88.80416,101.9757,NaN,0.0,3.216,,0 / 35,5015,2021-06-14 11:12:17:057
-0.37767,0.035873,9.737396,4.43E-4,-3.81E-4,3.66E-4,2.7222,-30.8075,-41.1514,26.881237,88.80416,101.9757,NaN,0.0,3.216,,0 / 35,5516,2021-06-14 11:12:17:558
-0.396835,0.016724,9.742188,-5.34E-4,4.12E-4,4.58E-4,2.1942,-29.364,-40.979,26.881237,88.80416,101.9757,NaN,0.0,3.216,,9 / 36,6015,2021-06-14 11:12:18:057
-0.392044,0.040665,9.742188,9.2E-5,6.1E-5,3.66E-4,2.4582,-30.8075,-41.7038,26.881237,88.80416,101.9757,NaN,0.0,3.216,,9 / 36,6515,2021-06-14 11:12:18:557
-0.396835,0.021515,9.746979,-9.2E-5,-0.001266,-2.59E-4,2.9861,-30.0842,-42.746,26.881237,88.80416,101.9757,NaN,0.0,3.216,,12 / 36,7016,2021-06-14 11:12:19:058
-0.368103,0.035873,9.732605,-5.34E-4,-8.24E-4,8.09E-4,2.7222,-30.5664,-43.2175,26.881237,88.80416,101.9757,NaN,0.0,3.216,,12 / 36,7515,2021-06-14 11:12:19:557
-0.368103,0.045456,9.723038,6.26E-4,8.54E-4,1.83E-4,2.7222,-30.0858,-42.2852,26.881237,88.80416,101.9757,NaN,0.0,3.216,,12 / 36,8015,2021-06-14 11:12:20:057
-0.348953,0.050247,9.723038,-6.26E-4,-1.22E-4,1.83E-4,3.2501,-30.3238,-41.1407,26.881237,88.80416,101.9757,NaN,0.0,3.216,,12 / 36,8515,2021-06-14 11:12:20:557
-0.401627,0.055038,9.75177,-4.43E-4,-3.1E-5,-7.6E-5,2.9861,-29.6036,-41.3071,26.881237,88.80416,101.9757,NaN,0.0,3.216,,11 / 28,9016,2021-06-14 11:12:21:058
-0.406403,0.026306,9.478821,-0.001068,-4.73E-4,-7.6E-5,2.4582,-29.364,-41.4383,26.881237,88.80416,101.9757,NaN,0.0,3.216,,11 / 28,9516,2021-06-14 11:12:21:558
-0.37767,0.016724,9.742188,5.34E-4,2.44E-4,-1.68E-4,2.1942,-28.8834,-42.0715,26.881237,88.80416,101.9757,NaN,0.0,3.216,,11 / 28,10016,2021-06-14 11:12:22:058
-0.387253,0.016724,9.775711,6.26E-4,-2.9E-4,-8.85E-4,2.1942,-29.364,-40.4724,26.881237,88.80416,101.9757,NaN,0.0,3.216,,11 / 28,10516,2021-06-14 11:12:22:558
-0.411194,0.026306,9.756546,0.001587,-4.73E-4,-5.34E-4,2.7222,-29.3625,-41.8991,26.881237,88.80416,101.9757,NaN,0.0,3.216,,13 / 28,11015,2021-06-14 11:12:23:057
-0.406403,0.016724,9.727814,9.77E-4,-6.56E-4,1.83E-4,2.1942,-28.1616,-41.6855,26.881237,88.80416,101.9757,NaN,0.0,3.216,,13 / 28,11515,2021-06-14 11:12:23:557
-0.37767,0.021515,9.718246,-2.59E-4,5.04E-4,1.83E-4,2.4582,-28.6423,-42.0654,26.881237,88.80416,101.9757,NaN,0.0,3.216,,14 / 28,12016,2021-06-14 11:12:24:058
-0.406403,0.026306,9.699097,-1.83E-4,-2.9E-4,-7.6E-5,2.7222,-28.8818,-40.4602,26.881237,88.80416,101.9757,NaN,0.0,3.216,,14 / 28,12516,2021-06-14 11:12:24:558
-0.368103,0.050247,9.718246,2.75E-4,-6.56E-4,-6.1E-4,2.7222,-30.3253,-40.2191,26.881237,88.80416,101.9757,NaN,0.0,3.216,,14 / 28,13015,2021-06-14 11:12:25:057
-0.382462,0.040665,9.732605,-2.59E-4,-7.6E-5,-1.37E-4,2.1942,-29.8462,-40.3915,26.881237,88.80416,101.9757,NaN,0.0,3.216,,14 / 28,13515,2021-06-14 11:12:25:557
-0.382462,0.026306,9.708664,-2.59E-4,1.5E-5,3.97E-4,2.7222,-29.8447,-40.3,26.881237,88.80416,101.9757,NaN,0.0,3.216,,15 / 28,14016,2021-06-14 11:12:26:058
-0.396835,0.007156,9.694305,-7.93E-4,3.66E-4,-3.2E-4,2.1942,-28.6423,-40.593,26.881237,88.80416,101.9757,NaN,0.0,3.216,,15 / 28,14515,2021-06-14 11:12:26:557
-0.382462,0.026306,9.718246,1.5E-5,-6.1E-4,2.14E-4,2.4582,-30.3268,-40.2649,26.881237,88.80416,101.9757,NaN,0.0,3.216,,15 / 28,15015,2021-06-14 11:12:27:057
-0.401627,0.035873,9.742188,1.07E-4,4.58E-4,4.88E-4,2.1942,-28.6423,-43.1244,26.881237,88.80416,101.9757,NaN,0.0,3.216,,15 / 28,15515,2021-06-14 11:12:27:557
-0.344162,0.021515,9.727814,-2.59E-4,-7.93E-4,-8.54E-4,1.9302,-29.1244,-40.0513,26.881237,88.80416,101.9757,NaN,0.0,3.216,,16 / 28,16015,2021-06-14 11:12:28:057
-0.387253,0.040665,9.718246,9.2E-5,1.98E-4,2.14E-4,1.6663,-28.8849,-41.6565,26.881237,88.80416,101.9757,NaN,0.0,3.216,,16 / 28,16516,2021-06-14 11:12:28:558
-0.372894,0.026306,9.723038,-2.59E-4,7.32E-4,4.88E-4,2.1942,-29.8462,-40.3915,26.881237,88.80416,101.9757,NaN,0.0,3.216,,16 / 28,17015,2021-06-14 11:12:29:057
-0.392044,0.021515,9.679932,1.5E-5,1.98E-4,6.56E-4,1.9302,-30.0873,-40.9042,26.881237,88.80416,101.9757,NaN,0.0,3.216,,16 / 28,17516,2021-06-14 11:12:29:558
-0.382462,0.007156,9.703873,-6.1E-4,-1.68E-4,-1.37E-4,2.4582,-29.8447,-43.8904,26.881237,88.80416,101.9757,NaN,0.0,3.216,,16 / 28,18015,2021-06-14 11:12:30:057
-0.35852,0.021515,9.699097,9.2E-5,4.58E-4,-4.6E-5,1.9302,-29.8462,-39.4257,26.881237,88.80416,101.9757,NaN,0.0,3.216,,16 / 28,18516,2021-06-14 11:12:30:558
-0.368103,0.002365,9.703873,2.75E-4,1.07E-4,5.65E-4,1.6663,-29.6066,-41.0294,26.881237,88.80416,101.9757,NaN,0.0,3.216,,16 / 28,19015,2021-06-14 11:12:31:057
-0.29628,0.002365,9.665573,9.2E-5,-6.87E-4,0.00119,2.1942,-28.8834,-42.5781,26.881237,88.80416,101.9757,NaN,0.0,3.216,,16 / 28,19515,2021-06-14 11:12:31:557
-0.344162,-0.002426,9.718246,7.17E-4,-4.27E-4,-6.71E-4,2.1942,-30.809,-40.7379,26.881237,88.80416,101.9757,NaN,0.0,3.216,,16 / 28,20015,2021-06-14 11:12:32:057
-0.37767,-0.002426,9.689514,2.75E-4,1.07E-4,-4.12E-4,1.9302,-29.6066,-41.9968,26.881237,88.80416,101.9757,NaN,0.0,3.216,,16 / 28,20515,2021-06-14 11:12:32:557
-0.37767,0.011932,9.699097,-2.59E-4,-7.02E-4,2.14E-4,1.6663,-29.3655,-43.602,26.881237,88.80416,101.9757,NaN,0.0,3.216,,16 / 28,21015,2021-06-14 11:12:33:057
-0.368103,0.007156,9.694305,4.58E-4,-7.6E-5,2.14E-4,1.1398,-30.571,-41.9739,26.881237,88.80416,101.9757,NaN,0.0,3.216,,16 / 28,21516,2021-06-14 11:12:33:558
-0.382462,0.011932,9.723038,1.83E-4,2.75E-4,3.97E-4,2.1942,-30.0873,-43.3899,26.881237,88.80416,101.9757,NaN,0.0,3.216,,16 / 28,22016,2021-06-14 11:12:34:058
-0.372894,0.016724,9.713455,5.49E-4,-5.19E-4,-4.12E-4,1.9302,-31.0501,-41.2491,26.881237,88.80416,101.9757,NaN,0.0,3.216,,16 / 28,22515,2021-06-14 11:12:34:557
-0.392044,-0.0168,9.708664,-7.93E-4,-1.68E-4,4.88E-4,2.4582,-30.8075,-45.2484,26.881237,88.80416,101.9757,NaN,0.0,3.216,,14 / 28,23016,2021-06-14 11:12:35:058
-0.37767,0.002365,9.699097,-3.51E-4,1.98E-4,-5.04E-4,1.9302,-29.3655,-42.0364,26.881237,88.80416,101.9757,NaN,0.0,3.216,,14 / 28,23515,2021-06-14 11:12:35:557
-0.372894,-0.0168,9.694305,-1.68E-4,-5.19E-4,-3.2E-4,2.7222,-30.5664,-39.1663,26.881237,88.80416,101.9757,NaN,0.0,3.216,,14 / 28,24015,2021-06-14 11:12:36:057
-0.37767,-0.002426,9.694305,-7.93E-4,1.98E-4,3.05E-4,1.4023,-28.1631,-43.8492,26.881237,88.80416,101.9757,NaN,0.0,3.216,,14 / 28,24515,2021-06-14 11:12:36:557
-0.607513,-0.217911,9.464462,-0.008514,0.004807,0.194366,0.0839,-28.1677,-43.5715,26.881237,88.80416,101.9757,NaN,0.0,3.216,,14 / 28,25015,2021-06-14 11:12:37:057
-1.095932,-0.361557,10.953659,0.0,-0.001495,0.002609,-0.1801,-29.6112,-44.3893,26.881237,88.80416,101.9757,NaN,0.0,3.216,,14 / 28,25516,2021-06-14 11:12:37:558
-0.530899,-0.141296,9.761337,-6.1E-4,0.004272,0.00119,0.0839,-28.4073,-43.0252,26.881237,88.80416,101.9757,NaN,0.0,3.216,,14 / 28,26015,2021-06-14 11:12:38:057
-0.885254,-0.031158,10.005554,6.26E-4,-0.00354,-0.002808,-1.236,-28.8925,-44.693,26.881237,88.80416,101.9757,NaN,0.0,3.216,,14 / 28,26515,2021-06-14 11:12:38:557
-0.301056,0.021515,9.694305,-2.59E-4,-6.87E-4,7.48E-4,0.0839,-27.9266,-46.1426,26.881237,88.80416,101.9757,NaN,0.0,3.216,,13 / 28,27015,2021-06-14 11:12:39:057
-0.277115,-0.0168,9.670364,-0.001419,5.49E-4,0.001373,-0.708,-28.891,-44.6014,26.881237,88.80416,101.9757,NaN,0.0,3.216,,13 / 28,27516,2021-06-14 11:12:39:558
-0.372894,0.007156,9.727814,-2.59E-4,1.5E-5,0.001099,0.6119,-28.4058,-48.5031,26.881237,88.80416,101.9757,NaN,0.0,3.216,,12 / 28,28016,2021-06-14 11:12:40:058
-0.344162,-0.0168,9.699097,-3.51E-4,1.5E-5,1.22E-4,0.6119,-29.3686,-42.7734,26.881237,88.80416,101.9757,NaN,0.0,3.216,,12 / 28,28515,2021-06-14 11:12:40:557
-0.368103,0.011932,9.723038,5.34E-4,-7.02E-4,-8.54E-4,-0.1801,-28.4088,-44.0842,26.881237,88.80416,101.9757,NaN,0.0,3.216,,13 / 28,29015,2021-06-14 11:12:41:057
-0.420776,-0.088623,9.694305,-6.1E-4,9.92E-4,3.1E-5,-0.444,-28.1692,-44.1696,26.881237,88.80416,101.9757,NaN,0.0,3.216,,13 / 28,29516,2021-06-14 11:12:41:558
-0.344162,-0.0168,9.732605,-0.001419,-7.6E-5,0.001282,-0.708,-28.1692,-43.2037,26.881237,88.80416,101.9757,NaN,0.0,3.216,,14 / 28,30016,2021-06-14 11:12:42:058
-0.415985,-0.012009,9.737396,1.07E-4,-2.44E-4,-0.001389,0.0839,-27.6855,-44.1589,26.881237,88.80416,101.9757,NaN,0.0,3.216,,14 / 28,30515,2021-06-14 11:12:42:557
-0.339371,0.002365,9.675156,5.34E-4,1.07E-4,0.001022,-0.444,-27.9282,-43.1976,26.881237,88.80416,101.9757,NaN,0.0,3.216,,12 / 28,31016,2021-06-14 11:12:43:058
-0.415985,0.016724,9.713455,-7.6E-5,-1.68E-4,-3.2E-4,-0.708,-28.6514,-43.1229,26.881237,88.80416,101.9757,NaN,0.0,3.216,,12 / 28,31515,2021-06-14 11:12:43:557
-0.37767,-0.012009,9.603317,-0.001053,0.001175,-4.12E-4,-0.708,-27.4475,-43.3228,26.881237,88.80416,101.9757,NaN,0.0,3.216,,12 / 28,32015,2021-06-14 11:12:44:057
-0.286697,0.035873,9.723038,1.83E-4,-0.001312,5.65E-4,-0.708,-29.1321,-42.5354,26.881237,88.80416,101.9757,NaN,0.0,3.216,,12 / 28,32515,2021-06-14 11:12:44:557
-0.325012,-0.007217,9.660782,9.2E-5,1.07E-4,-0.001205,-0.708,-27.9282,-45.2682,26.881237,88.80416,101.9757,NaN,0.0,3.216,,12 / 28,33015,2021-06-14 11:12:45:057
-0.425568,0.011932,9.756546,-7.93E-4,2.9E-4,0.00119,-0.1801,-28.6499,-43.5379,26.881237,88.80416,101.9757,NaN,0.0,3.216,,12 / 28,33516,2021-06-14 11:12:45:558
-0.430344,0.002365,9.746979,9.2E-5,-5.19E-4,-5.04E-4,-0.708,-28.6514,-42.1097,26.881237,88.80416,101.9757,NaN,0.0,3.216,,13 / 28,34015,2021-06-14 11:12:46:057
-0.382462,-0.012009,9.713455,-6.1E-4,-7.6E-5,-9.46E-4,-0.708,-28.1692,-42.6971,26.881237,88.80416,101.9757,NaN,0.0,3.216,,13 / 28,34516,2021-06-14 11:12:46:558
-0.363312,-0.021576,9.713455,-0.001144,-6.1E-4,-1.37E-4,-0.444,-28.891,-46.5805,26.881237,88.80416,101.9757,NaN,0.0,3.216,,12 / 28,35016,2021-06-14 11:12:47:058
-0.35852,0.026306,9.723038,6.1E-5,-1.83E-4,-0.002609,-0.972,-28.8925,-43.634,26.881237,88.80416,101.9757,NaN,0.0,3.216,,12 / 28,35515,2021-06-14 11:12:47:557
-0.363312,-0.012009,9.708664,5.04E-4,5.34E-4,7.63E-4,-0.708,-29.1321,-42.5354,26.881237,88.80416,101.9757,NaN,0.0,3.216,,13 / 28,36015,2021-06-14 11:12:48:057
-0.392044,0.031097,9.684723,-4.73E-4,-9.2E-5,8.54E-4,-1.4999,-29.3747,-42.6331,26.881237,88.80416,101.9757,NaN,0.0,3.216,,13 / 28,36516,2021-06-14 11:12:48:558
-0.35852,0.002365,9.703873,0.001022,6.26E-4,-0.001114,-0.972,-29.3732,-44.0613,26.881237,88.80416,101.9757,NaN,0.0,3.216,,13 / 28,37016,2021-06-14 11:12:49:058
-0.406403,-0.002426,9.732605,3.2E-4,-2.75E-4,-9.31E-4,-0.972,-28.6514,-44.6869,26.881237,88.80416,101.9757,NaN,0.0,3.216,,13 / 28,37515,2021-06-14 11:12:49:557
-0.420776,-0.021576,9.737396,6.71E-4,-9.2E-5,-4.6E-5,-0.708,-29.8538,-43.428,26.881237,88.80416,101.9757,NaN,0.0,3.216,,13 / 28,38015,2021-06-14 11:12:50:057
-0.368103,0.055038,9.727814,-2.14E-4,6.26E-4,-4.6E-5,-0.444,-29.6127,-45.4468,26.881237,88.80416,101.9757,NaN,0.0,3.216,,13 / 28,38515,2021-06-14 11:12:50:557
-0.37767,-0.007217,9.75177,-5.65E-4,1.83E-4,8.54E-4,-0.972,-28.6514,-45.7001,26.881237,88.80416,101.9757,NaN,0.0,3.216,,13 / 28,39016,2021-06-14 11:12:51:058
-0.35852,-0.064682,9.703873,6.71E-4,-0.001251,-0.003235,-1.236,-29.3747,-45.6253,26.881237,88.80416,101.9757,NaN,0.0,3.216,,13 / 28,39516,2021-06-14 11:12:51:558
-0.344162,-0.031158,9.694305,4.6E-5,7.93E-4,0.001465,-0.708,-28.891,-43.0832,26.881237,88.80416,101.9757,NaN,0.0,3.216,,13 / 28,40016,2021-06-14 11:12:52:058
-0.401627,-0.0168,9.699097,-8.39E-4,2.75E-4,7.63E-4,-0.972,-28.6514,-45.1935,26.881237,88.80416,101.9757,NaN,0.0,3.216,,13 / 28,40516,2021-06-14 11:12:52:558
-0.415985,0.026306,9.723038,6.71E-4,4.43E-4,0.00148,-1.236,-29.3747,-45.1187,26.881237,88.80416,101.9757,NaN,0.0,3.216,,13 / 28,41015,2021-06-14 11:12:53:057
-0.372894,-0.031158,9.699097,-3.1E-5,-7.02E-4,-0.003326,-1.4999,-28.653,-45.285,26.881237,88.80416,101.9757,NaN,0.0,3.216,,13 / 28,41516,2021-06-14 11:12:53:558
-0.363312,0.007156,9.694305,3.2E-4,0.0,-4.88E-4,-0.972,-29.3732,-42.5415,26.881237,88.80416,101.9757,NaN,0.0,3.216,,12 / 28,42015,2021-06-14 11:12:54:057
-0.396835,0.040665,9.727814,5.8E-4,9.2E-5,-0.001099,-1.236,-28.1708,-45.3201,26.881237,88.80416,101.9757,NaN,0.0,3.216,,12 / 28,42516,2021-06-14 11:12:54:558
-0.348953,0.011932,9.718246,0.001556,2.59E-4,0.001389,-0.444,-29.3716,-44.9814,26.881237,88.80416,101.9757,NaN,0.0,3.216,,12 / 28,43015,2021-06-14 11:12:55:057
-0.444717,0.016724,9.708664,-5.65E-4,9.2E-5,-0.002258,-0.1801,-29.1306,-43.457,26.881237,88.80416,101.9757,NaN,0.0,3.216,,12 / 28,43515,2021-06-14 11:12:55:557
-0.439926,-0.002426,9.746979,1.37E-4,6.1E-4,1.37E-4,-0.444,-29.1306,-43.5028,26.881237,88.80416,101.9757,NaN,0.0,3.216,,13 / 27,44015,2021-06-14 11:12:56:057
-0.382462,0.045456,9.732605,-3.1E-5,-8.09E-4,3.2E-4,-1.4999,-28.1708,-44.8593,26.881237,88.80416,101.9757,NaN,0.0,3.216,,13 / 27,44516,2021-06-14 11:12:56:558
-0.372894,-0.0168,9.694305,6.1E-5,-2.75E-4,5.8E-4,-0.444,-28.6499,-44.0887,26.881237,88.80416,101.9757,NaN,0.0,3.216,,13 / 28,45016,2021-06-14 11:12:57:058
-0.435135,0.021515,9.737396,0.001022,-7.17E-4,-0.00235,-0.972,-28.8925,-44.6472,26.881237,88.80416,101.9757,NaN,0.0,3.216,,13 / 28,45515,2021-06-14 11:12:57:557
-0.277115,0.011932,9.665573,-1.22E-4,-9.2E-5,-0.005005,-1.236,-28.8925,-45.1996,26.881237,88.80416,101.9757,NaN,0.0,3.216,,13 / 28,46016,2021-06-14 11:12:58:058
-0.425568,-0.021576,9.699097,8.54E-4,-3.66E-4,3.2E-4,-0.708,-28.6514,-44.1345,26.881237,88.80416,101.9757,NaN,0.0,3.216,,13 / 28,46516,2021-06-14 11:12:58:558
-0.53569,-0.021576,9.766129,-3.05E-4,-5.34E-4,0.00209,-0.1801,-27.9266,-46.1884,26.881237,88.80416,101.9757,NaN,0.0,3.216,,13 / 27,47015,2021-06-14 11:12:59:057
-0.248398,0.093338,9.699097,-6.56E-4,0.001953,0.002441,-0.708,-28.1692,-46.2402,26.881237,88.80416,101.9757,NaN,0.0,3.216,,13 / 27,47515,2021-06-14 11:12:59:557
-0.272339,0.026306,9.718246,-3.1E-5,-7.17E-4,4.12E-4,-0.972,-28.1708,-45.2744,26.881237,88.80416,101.9757,NaN,0.0,3.216,,13 / 28,48016,2021-06-14 11:13:00:058
-0.344162,0.011932,9.732605,5.95E-4,0.001862,8.54E-4,-0.972,-28.6514,-46.7133,26.881237,88.80416,101.9757,NaN,0.0,3.216,,13 / 28,48516,2021-06-14 11:13:00:558
-0.420776,-0.0168,9.737396,0.002182,-8.09E-4,-0.001556,-0.444,-27.6871,-45.2621,26.881237,88.80416,101.9757,NaN,0.0,3.216,,13 / 28,49016,2021-06-14 11:13:01:058
-0.344162,-0.031158,9.689514,0.001022,-8.85E-4,-8.39E-4,-0.1801,-28.8895,-45.0165,26.881237,88.80416,101.9757,NaN,0.0,3.216,,13 / 28,49515,2021-06-14 11:13:01:557
-0.372894,0.055038,9.723038,-7.48E-4,-4.43E-4,4.6E-5,-0.444,-28.891,-46.0739,26.881237,88.80416,101.9757,NaN,0.0,3.216,,12 / 28,50016,2021-06-14 11:13:02:058
-0.37767,0.002365,9.718246,-2.14E-4,-7.17E-4,-0.003418,-0.708,-29.1321,-46.5866,26.881237,88.80416,101.9757,NaN,0.0,3.216,,12 / 28,50516,2021-06-14 11:13:02:558
-0.37767,-0.012009,9.679932,-3.97E-4,6.26E-4,0.00174,-0.708,-28.1692,-45.7352,26.881237,88.80416,101.9757,NaN,0.0,3.216,,12 / 28,51015,2021-06-14 11:13:03:057
-0.478241,-0.040741,9.746979,-6.56E-4,-0.00177,0.002441,-1.236,-28.1708,-45.3201,26.881237,88.80416,101.9757,NaN,0.0,3.216,,12 / 28,51515,2021-06-14 11:13:03:557
-0.305847,0.059814,9.684723,3.2E-4,3.51E-4,0.001114,-1.236,-28.4119,-46.2921,26.881237,88.80416,101.9757,NaN,0.0,3.216,,13 / 27,52016,2021-06-14 11:13:04:058
-0.425568,-0.055099,9.766129,7.63E-4,7.02E-4,-0.001465,-0.708,-28.891,-44.6014,26.881237,88.80416,101.9757,NaN,0.0,3.216,,13 / 27,52516,2021-06-14 11:13:04:558
-0.439926,-0.012009,9.77092,6.71E-4,-0.001343,-0.004211,-0.444,-29.1306,-47.5525,26.881237,88.80416,101.9757,NaN,0.0,3.216,,13 / 28,53016,2021-06-14 11:13:05:058
-0.435135,-0.012009,9.737396,-5.65E-4,-7.17E-4,-4.6E-5,-0.708,-29.1321,-47.5983,26.881237,88.80416,101.9757,NaN,0.0,3.216,,13 / 28,53516,2021-06-14 11:13:05:558
-0.339371,0.021515,9.699097,-4.73E-4,-4.43E-4,0.001205,-0.972,-29.8553,-44.9936,26.881237,88.80416,101.9757,NaN,0.0,3.216,,13 / 28,54015,2021-06-14 11:13:06:057
-0.363312,-0.079041,9.622482,3.2E-4,-9.77E-4,-0.004303,-1.236,-28.8925,-47.2244,26.881237,88.80416,101.9757,NaN,0.0,3.216,,13 / 28,54516,2021-06-14 11:13:06:558
-0.344162,0.102921,9.746979,0.001114,-7.17E-4,-0.004745,-0.972,-30.336,-44.9127,26.881237,88.80416,101.9757,NaN,0.0,3.216,,13 / 28,55015,2021-06-14 11:13:07:057
-0.392044,0.040665,9.785278,0.001038,-5.34E-4,-0.001724,-0.708,-28.891,-48.1461,26.881237,88.80416,101.9757,NaN,0.0,3.216,,13 / 28,55516,2021-06-14 11:13:07:558
-0.430344,-0.026367,9.746979,5.04E-4,-7.93E-4,-0.001541,-1.236,-29.6143,-45.079,26.881237,88.80416,101.9757,NaN,0.0,3.216,,14 / 28,56015,2021-06-14 11:13:08:057
-0.348953,-0.03595,9.742188,7.63E-4,0.001236,6.71E-4,-1.236,-28.6514,-47.7707,26.881237,88.80416,101.9757,NaN,0.0,3.216,,14 / 28,56516,2021-06-14 11:13:08:558
-0.339371,0.026306,9.699097,6.71E-4,-7.17E-4,-0.001556,-0.972,-29.3732,-45.0729,26.881237,88.80416,101.9757,NaN,0.0,3.216,,14 / 28,57015,2021-06-14 11:13:09:057
-0.35852,0.007156,9.713455,-3.81E-4,5.34E-4,0.001205,-0.444,-28.4088,-45.1416,26.881237,88.80416,101.9757,NaN,0.0,3.216,,14 / 28,57515,2021-06-14 11:13:09:557
-0.454285,-0.045517,9.713455,-3.1E-5,8.85E-4,-0.001556,-1.4999,-28.4119,-43.8065,26.881237,88.80416,101.9757,NaN,0.0,3.216,,14 / 28,58016,2021-06-14 11:13:10:058
-0.415985,0.016724,9.703873,1.37E-4,9.2E-5,-5.8E-4,-1.4999,-29.1336,-45.2057,26.881237,88.80416,101.9757,NaN,0.0,3.216,,14 / 28,58515,2021-06-14 11:13:10:557
-0.406403,0.002365,9.708664,9.46E-4,9.2E-5,-3.97E-4,-0.708,-27.6886,-45.3079,26.881237,88.80416,101.9757,NaN,0.0,3.216,,15 / 28,59016,2021-06-14 11:13:11:058
-0.396835,-0.007217,9.746979,-0.001282,-1.83E-4,2.29E-4,-0.444,-29.3716,-45.488,26.881237,88.80416,101.9757,NaN,0.0,3.216,,15 / 28,59516,2021-06-14 11:13:11:558
-0.37767,-0.002426,9.718246,3.2E-4,-1.83E-4,-3.05E-4,-0.444,-28.6499,-45.1019,26.881237,88.80416,101.9757,NaN,0.0,3.216,,15 / 28,60015,2021-06-14 11:13:12:057
-0.415985,0.011932,9.723038,-9.16E-4,-2.75E-4,0.002441,-0.708,-29.6127,-44.4809,26.881237,88.80416,101.9757,NaN,0.0,3.216,,15 / 28,60517,2021-06-14 11:13:12:559
-0.396835,0.031097,9.732605,6.71E-4,9.77E-4,0.002716,-0.708,-29.6127,-45.9991,26.881237,88.80416,101.9757,NaN,0.0,3.216,,15 / 28,61016,2021-06-14 11:13:13:058
-0.387253,0.007156,9.732605,-3.97E-4,-5.34E-4,-3.97E-4,-1.236,-29.1336,-44.6533,26.881237,88.80416,101.9757,NaN,0.0,3.216,,15 / 28,61516,2021-06-14 11:13:13:558
-0.425568,0.016724,9.737396,-1.22E-4,1.68E-4,-0.001984,-0.708,-28.891,-43.0832,26.881237,88.80416,101.9757,NaN,0.0,3.216,,15 / 28,62016,2021-06-14 11:13:14:058
-0.449509,-0.012009,9.723038,3.2E-4,-2.59E-4,-4.6E-5,-0.444,-29.6127,-41.9037,26.881237,88.80416,101.9757,NaN,0.0,3.216,,15 / 28,62516,2021-06-14 11:13:14:558
-0.415985,0.016724,9.732605,-0.001099,-0.001068,-4.6E-5,-0.444,-28.6499,-43.5837,26.881237,88.80416,101.9757,NaN,0.0,3.216,,15 / 28,63015,2021-06-14 11:13:15:057
-0.435135,0.016724,9.703873,4.88E-4,2.59E-4,2.29E-4,-0.444,-28.1692,-45.6879,26.881237,88.80416,101.9757,NaN,0.0,3.216,,15 / 28,63515,2021-06-14 11:13:15:557
-0.363312,0.050247,9.699097,-7.6E-5,6.1E-5,-2.14E-4,-0.444,-27.446,-44.7968,26.881237,88.80416,101.9757,NaN,0.0,3.216,,15 / 28,64015,2021-06-14 11:13:16:057
-0.387253,0.011932,9.732605,6.26E-4,1.53E-4,-4.88E-4,-0.972,-27.9297,-45.8206,26.881237,88.80416,101.9757,NaN,0.0,3.216,,15 / 28,64516,2021-06-14 11:13:16:558
-0.372894,0.021515,9.737396,3.66E-4,-2.14E-4,4.12E-4,-0.708,-29.1321,-44.0552,26.881237,88.80416,101.9757,NaN,0.0,3.216,,16 / 28,65015,2021-06-14 11:13:17:057
-0.348953,0.007156,9.689514,5.49E-4,-2.14E-4,-0.001633,-1.236,-28.6514,-49.7955,26.881237,88.80416,101.9757,NaN,0.0,3.216,,16 / 28,65517,2021-06-14 11:13:17:559
-0.320221,0.016724,9.713455,1.5E-5,-5.65E-4,0.001923,0.0839,-28.1677,-45.5963,26.881237,88.80416,101.9757,NaN,0.0,3.216,,15 / 27,66015,2021-06-14 11:13:18:057
-0.406403,-0.007217,9.708664,-0.001328,7.78E-4,0.002884,-0.444,-29.6127,-44.9417,26.881237,88.80416,101.9757,NaN,0.0,3.216,,15 / 27,66516,2021-06-14 11:13:18:558
-0.392044,0.026306,9.746979,4.58E-4,2.44E-4,5.8E-4,-0.708,-28.6514,-45.6543,26.881237,88.80416,101.9757,NaN,0.0,3.216,,15 / 27,67015,2021-06-14 11:13:19:057
-0.401627,0.016724,9.737396,1.5E-5,-1.22E-4,-1.22E-4,-0.972,-27.9297,-44.8074,26.881237,88.80416,101.9757,NaN,0.0,3.216,,15 / 27,67515,2021-06-14 11:13:19:557
-0.411194,0.040665,9.708664,1.5E-5,1.53E-4,-0.001724,-0.972,-28.4103,-45.2332,26.881237,88.80416,101.9757,NaN,0.0,3.216,,15 / 27,68016,2021-06-14 11:13:20:058
-0.406403,0.007156,9.737396,-1.68E-4,5.04E-4,-0.001373,-0.972,-28.1708,-45.7809,26.881237,88.80416,101.9757,NaN,0.0,3.216,,15 / 27,68516,2021-06-14 11:13:20:558
-0.348953,0.007156,9.732605,-5.19E-4,-2.14E-4,5.8E-4,-0.708,-29.3732,-44.5206,26.881237,88.80416,101.9757,NaN,0.0,3.216,,15 / 27,69015,2021-06-14 11:13:21:057
-0.363312,0.007156,9.703873,-1.68E-4,-2.9E-4,0.001556,-0.972,-29.1321,-45.1126,26.881237,88.80416,101.9757,NaN,0.0,3.216,,15 / 27,69515,2021-06-14 11:13:21:557
-0.392044,-0.007217,9.694305,-7.02E-4,8.7E-4,3.2E-4,-0.972,-29.8553,-46.0052,26.881237,88.80416,101.9757,NaN,0.0,3.216,,14 / 27,70016,2021-06-14 11:13:22:058
-0.430344,-0.007217,9.679932,-0.00177,-5.65E-4,6.71E-4,-0.444,-30.3345,-44.3146,26.881237,88.80416,101.9757,NaN,0.0,3.216,,14 / 27,70516,2021-06-14 11:13:22:558
-0.406403,-0.026367,9.727814,0.00116,4.12E-4,-0.001999,-0.972,-29.8553,-44.487,26.881237,88.80416,101.9757,NaN,0.0,3.216,,14 / 27,71015,2021-06-14 11:13:23:057
-0.286697,0.040665,9.689514,-1.68E-4,2.44E-4,9.46E-4,-1.236,-29.6143,-45.079,26.881237,88.80416,101.9757,NaN,0.0,3.216,,14 / 27,71516,2021-06-14 11:13:23:558
-0.430344,-0.021576,9.742188,-6.1E-4,-9.16E-4,-0.001907,-1.7624,-29.6158,-44.664,26.881237,88.80416,101.9757,NaN,0.0,3.216,,15 / 27,72016,2021-06-14 11:13:24:058
-0.35852,0.002365,9.703873,-7.02E-4,-2.9E-4,0.001297,-0.444,-29.3716,-45.9946,26.881237,88.80416,101.9757,NaN,0.0,3.216,,15 / 27,72516,2021-06-14 11:13:24:558
-0.392044,-0.012009,9.699097,-2.59E-4,6.1E-5,0.001556,-0.1801,-27.9266,-46.6949,26.881237,88.80416,101.9757,NaN,0.0,3.216,,15 / 27,73016,2021-06-14 11:13:25:058
-0.459076,0.059814,9.727814,9.2E-5,6.1E-5,0.001389,-0.1801,-28.6499,-45.0562,26.881237,88.80416,101.9757,NaN,0.0,3.216,,15 / 27,73516,2021-06-14 11:13:25:558
-0.430344,0.031097,9.727814,2.75E-4,-0.001007,-0.00563,-0.1801,-29.3716,-43.4174,26.881237,88.80416,101.9757,NaN,0.0,3.216,,14 / 27,74016,2021-06-14 11:13:26:058
-0.425568,-0.055099,9.699097,-1.68E-4,2.44E-4,-0.003143,-0.1801,-28.6499,-47.081,26.881237,88.80416,101.9757,NaN,0.0,3.216,,14 / 27,74515,2021-06-14 11:13:26:557
-0.281906,0.136429,9.675156,-3.51E-4,1.53E-4,-0.003586,-0.444,-29.1306,-42.9962,26.881237,88.80416,101.9757,NaN,0.0,3.216,,14 / 27,75017,2021-06-14 11:13:27:059
-0.435135,0.011932,9.684723,2.75E-4,5.04E-4,4.12E-4,-0.708,-29.3732,-44.5206,26.881237,88.80416,101.9757,NaN,0.0,3.216,,14 / 27,75516,2021-06-14 11:13:27:558
-0.71286,-0.012009,9.823593,-0.002029,-0.003036,-3.97E-4,-0.708,-29.1321,-44.0552,26.881237,88.80416,101.9757,NaN,0.0,3.216,,14 / 27,76016,2021-06-14 11:13:28:058
-0.339371,0.002365,9.689514,-2.59E-4,-3.81E-4,4.88E-4,-0.444,-28.4088,-42.6102,26.881237,88.80416,101.9757,NaN,0.0,3.216,,14 / 27,76516,2021-06-14 11:13:28:558
-0.415985,0.083771,9.723038,0.001343,2.44E-4,-0.004471,-0.972,-29.3732,-45.5795,26.881237,88.80416,101.9757,NaN,0.0,3.216,,15 / 27,77015,2021-06-14 11:13:29:057
-0.411194,-0.069458,9.737396,-2.59E-4,0.001038,0.001907,-0.444,-28.1692,-44.1696,26.881237,88.80416,101.9757,NaN,0.0,3.216,,15 / 27,77515,2021-06-14 11:13:29:557
-0.396835,0.002365,9.703873,-6.1E-4,2.44E-4,0.001114,0.0839,-28.1677,-45.0897,26.881237,88.80416,101.9757,NaN,0.0,3.216,,14 / 27,78015,2021-06-14 11:13:30:057
-0.363312,0.011932,9.694305,0.001343,4.12E-4,2.29E-4,0.0839,-28.4073,-45.5566,26.881237,88.80416,101.9757,NaN,0.0,3.216,,14 / 27,78516,2021-06-14 11:13:30:558
-0.420776,0.016724,9.746979,5.34E-4,6.87E-4,-2.14E-4,-0.444,-28.891,-45.0623,26.881237,88.80416,101.9757,NaN,0.0,3.216,,15 / 27,79016,2021-06-14 11:13:31:058
-0.411194,-0.007217,9.723038,-4.27E-4,3.2E-4,4.12E-4,-0.1801,-28.1677,-44.6304,26.881237,88.80416,101.9757,NaN,0.0,3.216,,15 / 27,79515,2021-06-14 11:13:31:557
-0.339371,-0.002426,9.689514,-0.001495,1.53E-4,4.6E-5,-0.972,-28.1708,-44.2612,26.881237,88.80416,101.9757,NaN,0.0,3.216,,16 / 27,80016,2021-06-14 11:13:32:058
-0.435135,-0.0168,9.742188,3.66E-4,-2.14E-4,-0.001114,-0.708,-29.3732,-47.052,26.881237,88.80416,101.9757,NaN,0.0,3.216,,16 / 27,80515,2021-06-14 11:13:32:557
-0.368103,0.016724,9.703873,-2.59E-4,5.95E-4,0.001648,-0.972,-29.3732,-45.5795,26.881237,88.80416,101.9757,NaN,0.0,3.216,,16 / 27,81015,2021-06-14 11:13:33:057
-0.401627,0.016724,9.713455,1.83E-4,4.12E-4,4.6E-5,-0.1801,-28.6499,-44.043,26.881237,88.80416,101.9757,NaN,0.0,3.216,,16 / 27,81515,2021-06-14 11:13:33:557
-0.392044,-0.012009,9.723038,7.17E-4,6.1E-5,-1.22E-4,-0.708,-28.1692,-46.2402,26.881237,88.80416,101.9757,NaN,0.0,3.216,,16 / 27,82015,2021-06-14 11:13:34:057
-0.401627,-0.007217,9.689514,0.001251,7.78E-4,4.6E-5,-1.236,-29.1336,-46.6782,26.881237,88.80416,101.9757,NaN,0.0,3.216,,16 / 27,82516,2021-06-14 11:13:34:558
-0.415985,0.002365,9.703873,-5.19E-4,6.1E-5,5.8E-4,-0.708,-28.4103,-49.7452,26.881237,88.80416,101.9757,NaN,0.0,3.216,,16 / 27,83015,2021-06-14 11:13:35:057
-0.420776,0.007156,9.655991,-0.002213,8.7E-4,4.6E-5,-0.708,-29.3732,-47.052,26.881237,88.80416,101.9757,NaN,0.0,3.216,,16 / 27,83515,2021-06-14 11:13:35:557
-0.583572,-0.246643,9.694305,0.004089,0.001129,-0.004745,-0.444,-29.8538,-45.9137,26.881237,88.80416,101.9757,NaN,0.0,3.216,,15 / 27,84016,2021-06-14 11:13:36:058
-0.511749,-0.241852,10.005554,1.5E-5,-1.22E-4,5.8E-4,-0.708,-29.3732,-47.052,26.881237,88.80416,101.9757,NaN,0.0,3.216,,15 / 27,84515,2021-06-14 11:13:36:557
-0.430344,-0.059891,9.818802,-0.001862,-9.16E-4,0.2733,-3.8742,-29.6219,-45.5383,26.881237,88.80416,101.9757,NaN,0.0,3.216,,15 / 27,85017,2021-06-14 11:13:37:059
-0.368103,0.055038,9.727814,-5.19E-4,-5.65E-4,0.153366,-7.5668,-29.3915,-47.2336,26.881237,88.80416,101.9757,NaN,0.0,3.216,,15 / 27,85516,2021-06-14 11:13:37:558
0.024551,-0.09819,9.83316,-5.19E-4,-0.001541,4.6E-5,-8.0948,-29.393,-46.3119,26.881237,88.80416,101.9757,NaN,0.0,3.216,,14 / 27,86015,2021-06-14 11:13:38:057
-0.645828,-0.083832,9.794861,-0.001328,0.00148,0.004135,-8.3588,-28.9124,-46.4386,26.881237,88.80416,101.9757,NaN,0.0,3.216,,14 / 27,86515,2021-06-14 11:13:38:557
-0.459076,0.002365,9.723038,0.001694,6.87E-4,0.127701,-9.9426,-28.6758,-47.2595,26.881237,88.80416,101.9757,NaN,0.0,3.216,,14 / 27,87015,2021-06-14 11:13:39:057
-0.554855,-0.079041,9.77092,-3.36E-4,4.12E-4,0.113327,-11.7889,-28.9215,-46.5286,26.881237,88.80416,101.9757,NaN,0.0,3.216,,14 / 27,87515,2021-06-14 11:13:39:557
-0.502182,-0.045517,9.746979,5.49E-4,1.53E-4,5.8E-4,-12.5809,-28.6835,-50.7568,26.881237,88.80416,101.9757,NaN,0.0,3.216,,14 / 27,88016,2021-06-14 11:13:40:058
-0.483017,-0.045517,9.703873,-7.02E-4,-2.14E-4,-0.001282,-12.5809,-27.9617,-45.8145,26.881237,88.80416,101.9757,NaN,0.0,3.216,,14 / 27,88515,2021-06-14 11:13:40:557
-0.483017,-0.083832,9.727814,-7.02E-4,-2.14E-4,0.093002,-13.1073,-28.2043,-45.8664,26.881237,88.80416,101.9757,NaN,0.0,3.216,,13 / 27,89015,2021-06-14 11:13:41:057
0.723648,-1.041504,9.804428,0.011108,-0.019287,0.103119,-14.6912,-27.7267,-44.7021,26.881237,88.80416,101.9757,NaN,0.0,3.216,,13 / 27,89515,2021-06-14 11:13:41:557
-1.139038,2.53064,4.326508,1.922104,1.393158,-0.763214,0.3479,-33.461,-36.5662,26.881237,88.80416,101.9757,NaN,0.0,3.216,,13 / 27,90016,2021-06-14 11:13:42:058
-2.877228,4.230515,9.478821,0.08577,-0.475311,0.374847,10.1105,-39.2105,-28.3356,26.881237,88.80416,101.9757,NaN,0.0,3.216,,13 / 27,90515,2021-06-14 11:13:42:557
-1.795044,4.632752,7.132508,-1.176132,0.125229,-0.368439,9.0561,-39.9353,-28.9047,26.881237,88.80416,101.9757,NaN,0.0,3.216,,15 / 27,91015,2021-06-14 11:13:43:057
-2.489364,3.866608,9.694305,-0.19014,-0.178543,-0.254105,12.4847,-37.7594,-28.6697,26.881237,88.80416,101.9757,NaN,0.0,3.216,,15 / 27,91516,2021-06-14 11:13:43:558
-2.41275,4.479523,8.693527,0.028595,-0.024078,-0.010696,11.6928,-38.4842,-26.1551,26.881237,88.80416,101.9757,NaN,0.0,3.216,,14 / 27,92015,2021-06-14 11:13:44:057
-2.58992,4.125183,9.019135,-0.085312,-0.004913,-0.018585,12.2208,-38.7238,-29.0619,26.881237,88.80416,101.9757,NaN,0.0,3.216,,14 / 27,92515,2021-06-14 11:13:44:557
-2.90596,4.240097,8.363129,0.004272,0.023315,0.017181,12.4847,-37.7594,-28.1631,26.881237,88.80416,101.9757,NaN,0.0,3.216,,14 / 27,93015,2021-06-14 11:13:45:057
-3.360855,3.837875,8.789291,0.005875,0.105881,-0.025696,13.5407,-37.7563,-26.9669,26.881237,88.80416,101.9757,NaN,0.0,3.216,,14 / 27,93515,2021-06-14 11:13:45:557
-3.298599,4.177841,8.487625,-0.042953,0.021454,0.077286,13.5407,-38.2385,-26.8875,26.881237,88.80416,101.9757,NaN,0.0,3.216,,14 / 27,94015,2021-06-14 11:13:46:057
-3.327331,4.005463,8.391861,0.016693,0.014526,0.090775,12.2208,-38.9633,-26.4893,26.881237,88.80416,101.9757,NaN,0.0,3.216,,14 / 27,94515,2021-06-14 11:13:46:557
-3.317764,3.928848,8.525925,-0.031677,0.014267,0.012756,11.1664,-38.4857,-27.2598,26.881237,88.80416,101.9757,NaN,0.0,3.216,,14 / 27,95015,2021-06-14 11:13:47:057
-3.284241,4.216156,8.44931,0.024689,-0.013077,0.037338,10.9024,-38.0051,-28.9047,26.881237,88.80416,101.9757,NaN,0.0,3.216,,14 / 27,95516,2021-06-14 11:13:47:558
-3.279449,4.445999,8.329605,0.012253,0.006638,0.072754,10.6384,-38.4872,-26.3397,26.881237,88.80416,101.9757,NaN,0.0,3.216,,14 / 27,96015,2021-06-14 11:13:48:057
-2.690475,4.661484,8.252991,0.050079,-0.036865,0.09584,8.5281,-39.6957,-26.5045,26.881237,88.80416,101.9757,NaN,0.0,3.216,,14 / 27,96516,2021-06-14 11:13:48:558
-2.949051,4.474732,8.559448,0.050079,0.014801,0.021088,8.5281,-38.974,-26.6251,26.881237,88.80416,101.9757,NaN,0.0,3.216,,12 / 27,97016,2021-06-14 11:13:49:058
-2.872436,4.580078,8.305664,0.013062,-0.004822,0.053314,7.2083,-39.4592,-24.7498,26.881237,88.80416,101.9757,NaN,0.0,3.216,,12 / 27,97515,2021-06-14 11:13:49:557
-3.174103,4.742874,8.267365,0.041016,6.87E-4,0.031479,5.6259,-40.6662,-24.8245,26.881237,88.80416,101.9757,NaN,0.0,3.216,,10 / 27,98015,2021-06-14 11:13:50:057
-2.791031,4.718933,8.353546,-0.055923,-0.049118,-0.006516,5.8899,-40.184,-25.8713,26.881237,88.80416,101.9757,NaN,0.0,3.216,,10 / 27,98515,2021-06-14 11:13:50:557
-2.647385,4.742874,8.176377,-0.035233,0.023499,0.02243,5.098,-40.9088,-25.3815,26.881237,88.80416,101.9757,NaN,0.0,3.216,,9 / 27,99016,2021-06-14 11:13:51:058
-2.977783,4.718933,8.353546,0.057617,0.004059,0.012573,5.098,-39.4653,-25.6226,26.881237,88.80416,101.9757,NaN,0.0,3.216,,9 / 27,99516,2021-06-14 11:13:51:558
-2.791031,4.690201,8.406219,-0.032578,-0.017334,0.083054,4.834,-41.391,-23.3231,26.881237,88.80416,101.9757,NaN,0.0,3.216,,9 / 26,100015,2021-06-14 11:13:52:057
-3.988129,4.565705,8.176377,-0.222107,0.347076,0.198105,4.57,-39.9475,-26.6464,26.881237,88.80416,101.9757,NaN,0.0,3.216,,9 / 26,100516,2021-06-14 11:13:52:558
-1.502945,1.175522,9.636841,-0.35437,-0.896973,-0.387878,-8.8867,-31.5613,-41.0248,26.881237,88.80416,101.9757,NaN,0.0,3.216,,9 / 27,101016,2021-06-14 11:13:53:058
0.120316,-0.490845,10.034271,0.359268,-0.034119,-0.86734,0.3479,-28.6484,-40.4083,26.881237,88.80416,101.9757,NaN,0.0,3.216,,9 / 27,101516,2021-06-14 11:13:53:558
0.556061,1.271286,10.034271,-0.285126,0.713882,0.196411,5.0964,-31.7627,-40.0726,26.881237,88.80416,101.9757,NaN,0.0,3.216,,7 / 27,102015,2021-06-14 11:13:54:057
-0.87088,0.787659,9.775711,-0.180908,0.153549,0.131088,6.6803,-31.7596,-40.303,26.881237,88.80416,101.9757,NaN,0.0,3.216,,7 / 27,102515,2021-06-14 11:13:54:557
-0.411194,-0.25621,9.79007,-0.015793,-0.078323,0.251007,3.5141,-29.8416,-45.2255,26.881237,88.80416,101.9757,NaN,0.0,3.216,,8 / 27,103016,2021-06-14 11:13:55:058
-0.35852,0.031097,9.732605,1.07E-4,-9.16E-4,1.37E-4,2.4582,-29.1229,-41.4795,26.881237,88.80416,101.9757,NaN,0.0,3.216,,8 / 27,103516,2021-06-14 11:13:55:558
-0.492599,0.050247,9.79007,1.5E-5,-3.81E-4,1.37E-4,1.9302,-28.6438,-43.6768,26.881237,88.80416,101.9757,NaN,0.0,3.216,,8 / 27,104016,2021-06-14 11:13:56:058
-0.363312,0.031097,9.727814,-0.001053,5.04E-4,-4.6E-5,2.4582,-29.1229,-42.4911,26.881237,88.80416,101.9757,NaN,0.0,3.216,,8 / 27,104516,2021-06-14 11:13:56:558
-0.435135,0.040665,9.761337,-1.68E-4,-1.98E-4,-2.14E-4,2.1942,-28.8834,-43.5898,26.881237,88.80416,101.9757,NaN,0.0,3.216,,7 / 26,105015,2021-06-14 11:13:57:057
-0.449509,0.016724,9.809219,-2.59E-4,-6.56E-4,-3.97E-4,2.7222,-28.4012,-43.0725,26.881237,88.80416,101.9757,NaN,0.0,3.216,,7 / 26,105515,2021-06-14 11:13:57:557
-0.439926,-0.026367,9.756546,6.41E-4,-0.001175,-6.56E-4,2.4582,-29.6051,-41.3986,26.881237,88.80416,101.9757,NaN,0.0,3.216,,9 / 27,106015,2021-06-14 11:13:58:057
-0.415985,0.040665,9.723038,-3.51E-4,-8.24E-4,-3.05E-4,2.4582,-29.364,-42.9581,26.881237,88.80416,101.9757,NaN,0.0,3.216,,9 / 27,106515,2021-06-14 11:13:58:557
-0.439926,-0.002426,9.756546,2.75E-4,-8.24E-4,-3.97E-4,2.4582,-30.3268,-42.2913,26.881237,88.80416,101.9757,NaN,0.0,3.216,,8 / 27,107015,2021-06-14 11:13:59:057
-0.449509,0.045456,9.785278,9.92E-4,-1.98E-4,-0.001114,2.4582,-30.0858,-42.3309,26.881237,88.80416,101.9757,NaN,0.0,3.216,,8 / 27,107515,2021-06-14 11:13:59:557
-0.459076,0.026306,9.79007,7.17E-4,-3.1E-5,-3.05E-4,2.1942,-30.3268,-41.8304,26.881237,88.80416,101.9757,NaN,0.0,3.216,,10 / 27,108015,2021-06-14 11:14:00:057
-0.392044,0.016724,9.780487,-0.001938,-0.00589,-4.88E-4,2.7222,-30.5664,-40.1794,26.881237,88.80416,101.9757,NaN,0.0,3.216,,10 / 27,108516,2021-06-14 11:14:00:558
-0.454285,0.064606,9.794861,8.09E-4,-3.1E-5,-9.31E-4,2.9861,-29.8431,-43.2922,26.881237,88.80416,101.9757,NaN,0.0,3.216,,10 / 27,109015,2021-06-14 11:14:01:057
-0.468658,0.002365,9.83316,7.17E-4,-1.22E-4,-0.00119,2.4582,-29.6051,-41.9052,26.881237,88.80416,101.9757,NaN,0.0,3.216,,10 / 27,109515,2021-06-14 11:14:01:557
-0.483017,0.026306,9.799652,-0.001678,5.95E-4,4.88E-4,2.4582,-29.6051,-44.4366,26.881237,88.80416,101.9757,NaN,0.0,3.216,,11 / 27,110015,2021-06-14 11:14:02:057
-0.435135,0.040665,9.814011,1.83E-4,-6.56E-4,-0.001373,2.9861,-31.2881,-43.5577,26.881237,88.80416,101.9757,NaN,0.0,3.216,,11 / 27,110515,2021-06-14 11:14:02:557
-0.459076,0.021515,9.794861,3.66E-4,-4.73E-4,-7.48E-4,1.9302,-30.3284,-44.4077,26.881237,88.80416,101.9757,NaN,0.0,3.216,,11 / 26,111015,2021-06-14 11:14:03:057
-0.497391,-0.012009,9.727814,0.001343,-3.1E-5,-4.88E-4,2.1942,-30.0873,-43.3899,26.881237,88.80416,101.9757,NaN,0.0,3.216,,11 / 26,111516,2021-06-14 11:14:03:558
-0.468658,0.074188,9.742188,0.001297,0.002045,0.214722,1.1398,-30.3299,-44.545,26.881237,88.80416,101.9757,NaN,0.0,3.216,,11 / 27,112015,2021-06-14 11:14:04:057
-0.411194,0.055038,9.732605,2.44E-4,-3.51E-4,3.36E-4,1.1383,-29.1275,-44.2398,26.881237,88.80416,101.9757,NaN,0.0,3.216,,11 / 27,112515,2021-06-14 11:14:04:557
-0.47345,-0.007217,9.727814,-3.81E-4,7.02E-4,3.36E-4,0.6119,-30.8136,-43.544,26.881237,88.80416,101.9757,NaN,0.0,3.216,,11 / 27,113015,2021-06-14 11:14:05:057
-0.454285,0.031097,9.799652,1.53E-4,2.59E-4,-9.92E-4,0.8759,-30.0903,-42.1005,26.881237,88.80416,101.9757,NaN,0.0,3.216,,11 / 27,113516,2021-06-14 11:14:05:558
-0.487808,0.026306,9.746979,9.46E-4,-3.51E-4,-0.001526,1.1398,-30.8121,-41.9342,26.881237,88.80416,101.9757,NaN,0.0,3.216,,11 / 27,114015,2021-06-14 11:14:06:057
-0.497391,-0.0168,9.77092,1.53E-4,-1.83E-4,-0.001175,1.9302,-29.8462,-43.9819,26.881237,88.80416,101.9757,NaN,0.0,3.216,,11 / 27,114515,2021-06-14 11:14:06:557
-0.468658,0.031097,9.766129,-1.07E-4,3.51E-4,-8.24E-4,1.4023,-30.8105,-40.8752,26.881237,88.80416,101.9757,NaN,0.0,3.216,,11 / 27,115016,2021-06-14 11:14:07:058
-0.468658,0.031097,9.780487,-5.65E-4,9.2E-5,-4.58E-4,0.8759,-30.3314,-42.0593,26.881237,88.80416,101.9757,NaN,0.0,3.216,,11 / 27,115516,2021-06-14 11:14:07:558
-0.478241,0.026306,9.746979,-5.65E-4,7.02E-4,-9.92E-4,1.1383,-29.1275,-41.2018,26.881237,88.80416,101.9757,NaN,0.0,3.216,,12 / 27,116015,2021-06-14 11:14:08:057
-0.487808,0.016724,9.727814,6.1E-5,1.68E-4,6.87E-4,1.4023,-28.6453,-43.2617,26.881237,88.80416,101.9757,NaN,0.0,3.216,,12 / 27,116516,2021-06-14 11:14:08:558
-0.47345,0.050247,9.737396,-7.32E-4,1.68E-4,4.27E-4,1.6663,-29.6066,-41.0294,26.881237,88.80416,101.9757,NaN,0.0,3.216,,12 / 27,117016,2021-06-14 11:14:09:058
-0.492599,-0.007217,9.727814,-7.32E-4,9.77E-4,-3.81E-4,1.6663,-29.8477,-42.0029,26.881237,88.80416,101.9757,NaN,0.0,3.216,,12 / 27,117515,2021-06-14 11:14:09:557
-0.463867,0.007156,9.746979,-5.65E-4,-9.2E-5,7.6E-5,1.1398,-30.0903,-41.0416,26.881237,88.80416,101.9757,NaN,0.0,3.216,,13 / 26,118015,2021-06-14 11:14:10:057
-0.463867,0.007156,9.737396,-4.73E-4,2.59E-4,5.19E-4,1.1383,-29.6082,-43.1473,26.881237,88.80416,101.9757,NaN,0.0,3.216,,13 / 26,118515,2021-06-14 11:14:10:557
-0.516541,-0.002426,9.742188,0.010529,-0.006485,-0.001175,1.1398,-30.0903,-42.5598,26.881237,88.80416,101.9757,NaN,0.0,3.216,,12 / 27,119015,2021-06-14 11:14:11:057
-0.468658,0.021515,9.708664,-0.014679,0.009674,7.6E-5,1.6663,-29.6066,-41.5359,26.881237,88.80416,101.9757,NaN,0.0,3.216,,12 / 27,119515,2021-06-14 11:14:11:557
-0.526123,0.011932,9.766129,-0.004608,1.07E-4,-0.001068,1.1383,-29.6082,-42.1341,26.881237,88.80416,101.9757,NaN,0.0,3.216,,12 / 27,120016,2021-06-14 11:14:12:058
-0.459076,0.007156,9.732605,-5.19E-4,-2.44E-4,-1.68E-4,1.6663,-30.3284,-43.4418,26.881237,88.80416,101.9757,NaN,0.0,3.216,,12 / 27,120515,2021-06-14 11:14:12:557
-0.420776,-0.079041,9.746979,-0.001053,-1.53E-4,5.34E-4,1.1383,-29.1275,-42.7216,26.881237,88.80416,101.9757,NaN,0.0,3.216,,11 / 27,121015,2021-06-14 11:14:13:057
-0.406403,-0.007217,9.703873,1.5E-5,-2.44E-4,9.2E-5,0.8759,-29.8492,-42.1402,26.881237,88.80416,101.9757,NaN,0.0,3.216,,11 / 27,121515,2021-06-14 11:14:13:557
-0.468658,0.011932,9.746979,-6.87E-4,2.75E-4,5.34E-4,0.8759,-29.6097,-43.6996,26.881237,88.80416,101.9757,NaN,0.0,3.216,,13 / 27,122015,2021-06-14 11:14:14:057
-0.468658,-0.002426,9.746979,-1.68E-4,2.75E-4,9.2E-5,1.1383,-29.6082,-43.6539,26.881237,88.80416,101.9757,NaN,0.0,3.216,,13 / 27,122515,2021-06-14 11:14:14:557
-0.449509,0.026306,9.718246,-3.36E-4,8.09E-4,0.0,1.1398,-30.3299,-44.0384,26.881237,88.80416,101.9757,NaN,0.0,3.216,,14 / 27,123015,2021-06-14 11:14:15:057
-0.449509,0.007156,9.732605,1.5E-5,-3.36E-4,-9.2E-5,0.8759,-29.8492,-42.6468,26.881237,88.80416,101.9757,NaN,0.0,3.216,,14 / 27,123515,2021-06-14 11:14:15:557
-0.425568,0.069397,8.822815,-7.6E-5,7.32E-4,-2.59E-4,1.1398,-30.3299,-41.507,26.881237,88.80416,101.9757,NaN,0.0,3.216,,15 / 27,124015,2021-06-14 11:14:16:057
-0.497391,0.007156,9.890625,0.029663,-0.028931,-3.51E-4,1.1398,-30.0903,-41.0416,26.881237,88.80416,101.9757,NaN,0.0,3.216,,15 / 27,124515,2021-06-14 11:14:16:557
-0.487808,0.007156,9.766129,-2.44E-4,7.32E-4,5.34E-4,1.1383,-29.8492,-41.0812,26.881237,88.80416,101.9757,NaN,0.0,3.216,,15 / 27,125016,2021-06-14 11:14:17:058
-0.401627,-0.012009,9.723038,-4.27E-4,4.58E-4,-3.51E-4,1.4023,-30.3299,-41.9678,26.881237,88.80416,101.9757,NaN,0.0,3.216,,15 / 27,125515,2021-06-14 11:14:17:557
-0.401627,0.016724,9.809219,1.98E-4,-1.68E-4,4.43E-4,1.6663,-29.8477,-43.0145,26.881237,88.80416,101.9757,NaN,0.0,3.216,,16 / 27,126015,2021-06-14 11:14:18:057
-0.459076,0.011932,9.761337,2.75E-4,-7.6E-5,5.34E-4,1.4023,-30.3299,-41.4612,26.881237,88.80416,101.9757,NaN,0.0,3.216,,16 / 27,126516,2021-06-14 11:14:18:558
-0.454285,0.007156,9.723038,-7.6E-5,1.5E-5,1.83E-4,1.4023,-30.3299,-41.9678,26.881237,88.80416,101.9757,NaN,0.0,3.216,,14 / 27,127016,2021-06-14 11:14:19:058
-0.478241,0.011932,9.756546,1.98E-4,-4.27E-4,2.75E-4,0.6119,-30.5725,-43.0786,26.881237,88.80416,101.9757,NaN,0.0,3.216,,14 / 27,127515,2021-06-14 11:14:19:557
-0.430344,0.021515,9.732605,0.005157,-0.003265,3.66E-4,0.6119,-29.129,-41.7999,26.881237,88.80416,101.9757,NaN,0.0,3.216,,14 / 27,128015,2021-06-14 11:14:20:057
-0.478241,0.021515,9.727814,-1.53E-4,-5.19E-4,-8.85E-4,1.6663,-29.6066,-40.0177,26.881237,88.80416,101.9757,NaN,0.0,3.216,,14 / 27,128516,2021-06-14 11:14:20:558
-0.449509,0.016724,9.742188,-4.27E-4,-5.19E-4,0.0,0.8743,-28.6468,-40.8218,26.881237,88.80416,101.9757,NaN,0.0,3.216,,14 / 27,129015,2021-06-14 11:14:21:057
-0.439926,0.021515,9.723038,-8.7E-4,-1.68E-4,2.75E-4,1.1383,-29.1275,-40.1901,26.881237,88.80416,101.9757,NaN,0.0,3.216,,14 / 27,129515,2021-06-14 11:14:21:557
-0.468658,0.002365,9.737396,-7.6E-5,1.98E-4,5.34E-4,1.1383,-29.6082,-41.6275,26.881237,88.80416,101.9757,NaN,0.0,3.216,,13 / 27,130015,2021-06-14 11:14:22:057
-0.574005,-0.064682,9.75177,-0.013046,0.005615,8.09E-4,1.4023,-28.8849,-43.222,26.881237,88.80416,101.9757,NaN,0.0,3.216,,13 / 27,130516,2021-06-14 11:14:22:558
-0.411194,0.021515,9.679932,2.9E-4,3.66E-4,5.34E-4,0.8759,-29.3686,-41.7145,26.881237,88.80416,101.9757,NaN,0.0,3.216,,11 / 27,131017,2021-06-14 11:14:23:059
-0.430344,-0.002426,9.708664,-5.19E-4,-2.59E-4,3.66E-4,0.8759,-29.3686,-41.2079,26.881237,88.80416,101.9757,NaN,0.0,3.216,,11 / 27,131516,2021-06-14 11:14:23:558
-0.47345,-0.002426,9.727814,1.98E-4,1.07E-4,6.26E-4,1.4023,-29.8477,-42.5552,26.881237,88.80416,101.9757,NaN,0.0,3.216,,11 / 27,132016,2021-06-14 11:14:24:058
-0.449509,0.011932,9.708664,-6.1E-4,-3.36E-4,1.83E-4,0.6119,-29.6097,-42.2256,26.881237,88.80416,101.9757,NaN,0.0,3.216,,11 / 27,132516,2021-06-14 11:14:24:558
-0.454285,0.007156,9.699097,-7.6E-5,8.09E-4,1.83E-4,0.8759,-30.3314,-42.0593,26.881237,88.80416,101.9757,NaN,0.0,3.216,,12 / 27,133015,2021-06-14 11:14:25:057
-0.459076,-0.002426,9.694305,-3.36E-4,9.92E-4,9.2E-5,1.1398,-30.3299,-42.0135,26.881237,88.80416,101.9757,NaN,0.0,3.216,,12 / 27,133516,2021-06-14 11:14:25:558
-0.444717,-0.002426,9.703873,1.5E-5,-7.6E-5,0.0,1.1398,-30.8121,-41.9342,26.881237,88.80416,101.9757,NaN,0.0,3.216,,13 / 27,134015,2021-06-14 11:14:26:057
-0.483017,-0.002426,9.723038,-6.87E-4,1.98E-4,5.34E-4,1.4023,-29.3671,-42.128,26.881237,88.80416,101.9757,NaN,0.0,3.216,,13 / 27,134516,2021-06-14 11:14:26:558
-0.444717,0.021515,9.718246,1.98E-4,6.41E-4,3.66E-4,0.3479,-29.6112,-41.7664,26.881237,88.80416,101.9757,NaN,0.0,3.216,,13 / 27,135015,2021-06-14 11:14:27:057
-0.444717,0.002365,9.723038,1.5E-5,0.001434,-9.2E-5,1.1398,-30.8121,-42.4393,26.881237,88.80416,101.9757,NaN,0.0,3.216,,13 / 27,135516,2021-06-14 11:14:27:558
-0.444717,0.002365,9.723038,-1.68E-4,1.07E-4,0.0,0.6119,-30.5725,-43.0786,26.881237,88.80416,101.9757,NaN,0.0,3.216,,13 / 27,136015,2021-06-14 11:14:28:057
-0.415985,-0.012009,9.727814,-5.19E-4,2.9E-4,5.34E-4,0.8759,-30.8121,-43.4982,26.881237,88.80416,101.9757,NaN,0.0,3.216,,13 / 27,136516,2021-06-14 11:14:28:558
-0.444717,0.007156,9.727814,-7.78E-4,2.75E-4,3.66E-4,0.6119,-31.0532,-44.0109,26.881237,88.80416,101.9757,NaN,0.0,3.216,,15 / 27,137016,2021-06-14 11:14:29:058
-0.439926,-0.002426,9.737396,-2.44E-4,4.58E-4,2.75E-4,0.6119,-30.0903,-42.6529,26.881237,88.80416,101.9757,NaN,0.0,3.216,,15 / 27,137515,2021-06-14 11:14:29:557
-0.454285,0.021515,9.713455,-0.001221,5.49E-4,-1.68E-4,0.8759,-29.6097,-42.6865,26.881237,88.80416,101.9757,NaN,0.0,3.216,,15 / 27,138016,2021-06-14 11:14:30:058
-0.459076,-0.021576,9.727814,-1.68E-4,9.0E-4,9.2E-5,0.8759,-30.0903,-42.1005,26.881237,88.80416,101.9757,NaN,0.0,3.216,,15 / 27,138515,2021-06-14 11:14:30:557
-0.430344,-0.002426,9.718246,-7.78E-4,3.66E-4,7.17E-4,1.1398,-30.3299,-43.0267,26.881237,88.80416,101.9757,NaN,0.0,3.216,,14 / 26,139015,2021-06-14 11:14:31:057
-0.435135,0.002365,9.732605,-2.44E-4,-2.44E-4,4.43E-4,1.1398,-30.8121,-42.4393,26.881237,88.80416,101.9757,NaN,0.0,3.216,,14 / 26,139515,2021-06-14 11:14:31:557
-0.478241,0.007156,9.723038,-3.36E-4,4.58E-4,-1.68E-4,1.4023,-30.3299,-42.4744,26.881237,88.80416,101.9757,NaN,0.0,3.216,,13 / 27,140016,2021-06-14 11:14:32:058
-0.602737,-0.126923,9.761337,-7.02E-4,0.001266,-3.51E-4,1.9302,-30.0873,-41.4108,26.881237,88.80416,101.9757,NaN,0.0,3.216,,13 / 27,140515,2021-06-14 11:14:32:557
-0.593155,-0.03595,9.761337,1.07E-4,5.49E-4,0.001511,1.4023,-30.3299,-42.4744,26.881237,88.80416,101.9757,NaN,0.0,3.216,,15 / 27,141016,2021-06-14 11:14:33:058
-0.31543,0.093338,9.756546,-8.7E-4,0.001434,-1.68E-4,1.6663,-30.8105,-40.8295,26.881237,88.80416,101.9757,NaN,0.0,3.216,,15 / 27,141516,2021-06-14 11:14:33:558
-0.253174,0.112488,9.651199,-1.68E-4,9.0E-4,0.001694,1.4023,-30.0888,-40.9958,26.881237,88.80416,101.9757,NaN,0.0,3.216,,15 / 27,142016,2021-06-14 11:14:34:058
-0.415985,0.007156,9.713455,1.98E-4,9.92E-4,-4.43E-4,0.6119,-28.8879,-42.8528,26.881237,88.80416,101.9757,NaN,0.0,3.216,,15 / 27,142515,2021-06-14 11:14:34:557
-0.411194,0.055038,9.708664,-3.36E-4,-1.53E-4,9.77E-4,1.9302,-30.0873,-40.3976,26.881237,88.80416,101.9757,NaN,0.0,3.216,,15 / 26,143016,2021-06-14 11:14:35:058
-0.392044,0.011932,9.723038,1.07E-4,1.98E-4,9.2E-5,1.4023,-28.8849,-40.6906,26.881237,88.80416,101.9757,NaN,0.0,3.216,,15 / 26,143515,2021-06-14 11:14:35:557
-0.468658,-0.007217,9.732605,-7.6E-5,-7.6E-5,-3.51E-4,1.6663,-30.3284,-40.4037,26.881237,88.80416,101.9757,NaN,0.0,3.216,,15 / 27,144015,2021-06-14 11:14:36:057
-0.430344,0.026306,9.718246,-1.53E-4,6.41E-4,4.43E-4,1.4023,-29.8477,-42.0486,26.881237,88.80416,101.9757,NaN,0.0,3.216,,15 / 27,144516,2021-06-14 11:14:36:558
-0.430344,-0.012009,9.718246,-0.001495,2.75E-4,7.17E-4,1.6663,-29.8477,-42.0029,26.881237,88.80416,101.9757,NaN,0.0,3.216,,15 / 27,145016,2021-06-14 11:14:37:058
-0.435135,-0.012009,9.723038,-3.36E-4,1.07E-4,-9.2E-5,1.6663,-29.6066,-46.5988,26.881237,88.80416,101.9757,NaN,0.0,3.216,,15 / 27,145515,2021-06-14 11:14:37:557
-0.449509,-0.007217,9.718246,-0.001846,-1.68E-4,9.2E-5,0.8759,-30.3314,-43.0725,26.881237,88.80416,101.9757,NaN,0.0,3.216,,15 / 27,146015,2021-06-14 11:14:38:057
-0.435135,0.007156,9.727814,1.07E-4,8.09E-4,0.001068,0.8759,-30.3314,-44.0857,26.881237,88.80416,101.9757,NaN,0.0,3.216,,15 / 27,146516,2021-06-14 11:14:38:558
-0.449509,0.002365,9.737396,-0.001404,3.66E-4,5.34E-4,0.8759,-29.3686,-42.7261,26.881237,88.80416,101.9757,NaN,0.0,3.216,,15 / 27,147016,2021-06-14 11:14:39:058
-0.439926,-0.002426,9.732605,-0.001312,-1.68E-4,-2.59E-4,1.4023,-30.8105,-42.9001,26.881237,88.80416,101.9757,NaN,0.0,3.216,,15 / 27,147515,2021-06-14 11:14:39:557
-0.449509,-0.026367,9.703873,-9.61E-4,1.5E-5,-1.68E-4,1.6663,-30.5695,-41.3757,26.881237,88.80416,101.9757,NaN,0.0,3.216,,14 / 27,148015,2021-06-14 11:14:40:057
-0.444717,0.045456,9.703873,1.07E-4,4.58E-4,0.0,0.8759,-29.6097,-43.1931,26.881237,88.80416,101.9757,NaN,0.0,3.216,,14 / 27,148515,2021-06-14 11:14:40:557
-0.454285,0.002365,9.713455,-0.001312,1.07E-4,0.00116,1.1398,-30.3299,-43.0267,26.881237,88.80416,101.9757,NaN,0.0,3.216,,14 / 27,149015,2021-06-14 11:14:41:057
-0.401627,0.031097,9.679932,1.5E-5,-6.1E-4,0.001251,1.1398,-31.0516,-43.4128,26.881237,88.80416,101.9757,NaN,0.0,3.216,,14 / 27,149515,2021-06-14 11:14:41:557
-0.559631,0.131653,9.766129,-7.02E-4,-5.95E-4,-3.51E-4,1.4038,-31.0516,-44.3787,26.881237,88.80416,101.9757,NaN,0.0,3.216,,14 / 27,150015,2021-06-14 11:14:42:057
-0.339371,0.011932,9.689514,2.44E-4,2.29E-4,-7.17E-4,1.6663,-29.6066,-44.0674,26.881237,88.80416,101.9757,NaN,0.0,3.216,,14 / 27,150515,2021-06-14 11:14:42:557
-0.411194,-0.002426,9.732605,-1.5E-5,-2.14E-4,-3.66E-4,1.4023,-29.126,-43.6874,26.881237,88.80416,101.9757,NaN,0.0,3.216,,14 / 27,151015,2021-06-14 11:14:43:057
-0.444717,-0.0168,9.737396,6.1E-4,4.6E-5,2.59E-4,1.1398,-30.571,-41.9739,26.881237,88.80416,101.9757,NaN,0.0,3.216,,14 / 27,151515,2021-06-14 11:14:43:557
-0.478241,0.016724,9.723038,6.87E-4,0.001038,-6.26E-4,1.1398,-30.8121,-42.4393,26.881237,88.80416,101.9757,NaN,0.0,3.216,,14 / 27,152016,2021-06-14 11:14:44:058
-0.425568,-0.021576,9.727814,-1.07E-4,-2.14E-4,9.2E-5,1.1398,-30.3299,-42.5201,26.881237,88.80416,101.9757,NaN,0.0,3.216,,14 / 27,152516,2021-06-14 11:14:44:558
-0.463867,-0.074249,9.723038,0.001221,-2.14E-4,-8.85E-4,1.4023,-30.571,-41.9281,26.881237,88.80416,101.9757,NaN,0.0,3.216,,14 / 27,153015,2021-06-14 11:14:45:057
-0.425568,0.002365,9.699097,-3.66E-4,-7.48E-4,-0.001251,1.4023,-29.3671,-42.6346,26.881237,88.80416,101.9757,NaN,0.0,3.216,,14 / 27,153516,2021-06-14 11:14:45:558
-0.439926,-0.0168,9.703873,-8.24E-4,4.6E-5,-9.2E-5,1.1383,-29.1275,-41.7084,26.881237,88.80416,101.9757,NaN,0.0,3.216,,14 / 27,154016,2021-06-14 11:14:46:058
-0.415985,0.016724,9.742188,-6.41E-4,-1.22E-4,9.77E-4,1.4023,-29.8477,-41.0355,26.881237,88.80416,101.9757,NaN,0.0,3.216,,14 / 27,154515,2021-06-14 11:14:46:557
-0.439926,-0.059891,9.718246,2.44E-4,6.71E-4,0.002747,0.6119,-29.3686,-41.2537,26.881237,88.80416,101.9757,NaN,0.0,3.216,,13 / 27,155016,2021-06-14 11:14:47:058
-0.415985,0.040665,9.718246,6.87E-4,-3.97E-4,-0.00267,1.1383,-29.3671,-42.1753,26.881237,88.80416,101.9757,NaN,0.0,3.216,,13 / 27,155516,2021-06-14 11:14:47:558
-0.439926,0.002365,9.689514,7.6E-5,-3.97E-4,6.26E-4,1.9302,-29.1244,-42.5827,26.881237,88.80416,101.9757,NaN,0.0,3.216,,13 / 27,156015,2021-06-14 11:14:48:057
-0.363312,-0.045517,9.679932,-1.07E-4,9.46E-4,0.00116,1.6663,-30.0888,-41.4566,26.881237,88.80416,101.9757,NaN,0.0,3.216,,13 / 27,156516,2021-06-14 11:14:48:558
-0.688919,-0.026367,9.766129,-7.32E-4,2.29E-4,0.004257,1.1398,-30.571,-41.4673,26.881237,88.80416,101.9757,NaN,0.0,3.216,,14 / 27,157015,2021-06-14 11:14:49:057
-0.363312,0.055038,9.732605,-1.98E-4,0.002182,-9.2E-5,0.8759,-30.0903,-42.6056,26.881237,88.80416,101.9757,NaN,0.0,3.216,,14 / 27,157516,2021-06-14 11:14:49:558
-0.396835,-0.050308,9.694305,0.001312,-4.88E-4,-0.002136,1.6663,-29.8477,-42.0029,26.881237,88.80416,101.9757,NaN,0.0,3.216,,14 / 27,158015,2021-06-14 11:14:50:057
-0.497391,-0.026367,9.718246,-5.49E-4,4.12E-4,9.77E-4,1.1398,-30.571,-41.4673,26.881237,88.80416,101.9757,NaN,0.0,3.216,,14 / 27,158517,2021-06-14 11:14:50:559
-0.35852,0.026306,9.689514,-4.58E-4,9.46E-4,0.002579,0.8759,-29.3686,-42.2211,26.881237,88.80416,101.9757,NaN,0.0,3.216,,14 / 27,159015,2021-06-14 11:14:51:057
-0.459076,0.031097,9.77092,-4.58E-4,-0.001282,0.001068,0.8759,-29.8492,-42.1402,26.881237,88.80416,101.9757,NaN,0.0,3.216,,14 / 27,159516,2021-06-14 11:14:51:558
-0.29628,0.078979,9.699097,0.001755,8.54E-4,-0.00293,0.8759,-30.571,-41.5131,26.881237,88.80416,101.9757,NaN,0.0,3.216,,14 / 27,160016,2021-06-14 11:14:52:058
-0.449509,-0.012009,9.703873,6.87E-4,4.88E-4,0.002304,1.1383,-29.6082,-46.6904,26.881237,88.80416,101.9757,NaN,0.0,3.216,,14 / 27,160515,2021-06-14 11:14:52:557
-0.435135,-0.012009,9.732605,-1.07E-4,-0.001282,-0.001511,0.8759,-31.2942,-42.4057,26.881237,88.80416,101.9757,NaN,0.0,3.216,,14 / 26,161016,2021-06-14 11:14:53:058
-0.415985,0.026306,9.703873,-1.07E-4,2.29E-4,5.34E-4,0.8759,-30.0903,-44.632,26.881237,88.80416,101.9757,NaN,0.0,3.216,,14 / 26,161516,2021-06-14 11:14:53:558
-0.449509,0.045456,9.708664,0.001038,4.88E-4,3.51E-4,0.8759,-31.2942,-42.9123,26.881237,88.80416,101.9757,NaN,0.0,3.216,,13 / 27,162016,2021-06-14 11:14:54:058
-0.425568,-0.0168,9.737396,-3.66E-4,-3.97E-4,7.93E-4,1.1398,-30.8121,-41.9342,26.881237,88.80416,101.9757,NaN,0.0,3.216,,13 / 27,162515,2021-06-14 11:14:54:557
-0.396835,0.011932,9.723038,-2.75E-4,-3.05E-4,9.2E-5,1.1398,-30.0903,-42.0547,26.881237,88.80416,101.9757,NaN,0.0,3.216,,12 / 27,163016,2021-06-14 11:14:55:058
-0.420776,0.011932,9.699097,1.68E-4,4.88E-4,-1.83E-4,1.6663,-29.8477,-43.0145,26.881237,88.80416,101.9757,NaN,0.0,3.216,,12 / 27,163516,2021-06-14 11:14:55:558
-0.463867,-0.031158,9.703873,4.27E-4,-4.6E-5,2.59E-4,0.8759,-30.3314,-44.0857,26.881237,88.80416,101.9757,NaN,0.0,3.216,,12 / 27,164015,2021-06-14 11:14:56:057
-0.430344,-0.031158,9.718246,3.36E-4,0.001389,0.00116,1.6663,-30.5695,-43.4006,26.881237,88.80416,101.9757,NaN,0.0,3.216,,12 / 27,164515,2021-06-14 11:14:56:557
-0.430344,-0.021576,9.703873,-3.81E-4,-9.31E-4,-9.0E-4,1.1383,-29.8492,-43.1076,26.881237,88.80416,101.9757,NaN,0.0,3.216,,13 / 27,165015,2021-06-14 11:14:57:057
-0.444717,0.035873,9.703873,-1.98E-4,-1.22E-4,-0.001862,0.8759,-29.3686,-43.2327,26.881237,88.80416,101.9757,NaN,0.0,3.216,,13 / 27,165515,2021-06-14 11:14:57:557
-0.35852,-0.012009,9.684723,0.001404,-0.002426,-0.00267,0.3479,-29.129,-46.4035,26.881237,88.80416,101.9757,NaN,0.0,3.216,,13 / 27,166016,2021-06-14 11:14:58:058
-0.463867,0.045456,9.694305,-7.93E-4,1.53E-4,6.1E-4,0.8759,-30.0903,-43.1122,26.881237,88.80416,101.9757,NaN,0.0,3.216,,13 / 27,166515,2021-06-14 11:14:58:557
-0.401627,-0.002426,9.708664,0.001785,5.19E-4,0.002472,1.1383,-29.8492,-43.1076,26.881237,88.80416,101.9757,NaN,0.0,3.216,,13 / 27,167016,2021-06-14 11:14:59:058
-0.401627,0.045456,9.723038,1.5E-5,-0.001343,-0.002319,1.4023,-27.6825,-43.4219,26.881237,88.80416,101.9757,NaN,0.0,3.216,,13 / 27,167515,2021-06-14 11:14:59:557
-0.483017,0.011932,9.723038,0.001785,3.36E-4,-0.001083,0.6119,-29.129,-45.3445,26.881237,88.80416,101.9757,NaN,0.0,3.216,,13 / 27,168015,2021-06-14 11:15:00:057
-0.396835,-0.059891,9.727814,8.09E-4,-1.98E-4,-4.58E-4,1.4023,-28.6453,-42.7551,26.881237,88.80416,101.9757,NaN,0.0,3.216,,13 / 27,168515,2021-06-14 11:15:00:557
-0.420776,0.002365,9.699097,1.83E-4,-9.92E-4,-1.07E-4,2.7222,-30.5664,-41.1926,26.881237,88.80416,101.9757,NaN,0.0,3.216,,13 / 27,169016,2021-06-14 11:15:01:058
-0.420776,0.011932,9.708664,-7.6E-5,-1.07E-4,-2.9E-4,1.9302,-29.8462,-41.9571,26.881237,88.80416,101.9757,NaN,0.0,3.216,,13 / 27,169515,2021-06-14 11:15:01:557
-0.459076,0.007156,9.727814,-7.93E-4,-7.32E-4,-0.001358,2.4582,-29.8447,-41.8655,26.881237,88.80416,101.9757,NaN,0.0,3.216,,13 / 27,170017,2021-06-14 11:15:02:059
-0.415985,-0.0168,9.723038,-0.002213,-1.07E-4,4.27E-4,1.4023,-29.8477,-45.5917,26.881237,88.80416,101.9757,NaN,0.0,3.216,,13 / 27,170515,2021-06-14 11:15:02:557
-0.439926,-0.012009,9.761337,-2.59E-4,0.001312,6.1E-4,2.1942,-29.364,-42.4973,26.881237,88.80416,101.9757,NaN,0.0,3.216,,13 / 27,171015,2021-06-14 11:15:03:057
-0.47345,0.007156,9.756546,4.43E-4,-1.5E-5,-9.92E-4,2.1942,-30.5679,-41.7908,26.881237,88.80416,101.9757,NaN,0.0,3.216,,13 / 27,171515,2021-06-14 11:15:03:557
-0.454285,0.002365,9.737396,-0.001862,4.27E-4,-0.001266,1.6663,-30.0888,-41.9617,26.881237,88.80416,101.9757,NaN,0.0,3.216,,13 / 27,172015,2021-06-14 11:15:04:057
-0.439926,0.011932,9.732605,-8.85E-4,-2.9E-4,-1.07E-4,2.7222,-30.5664,-42.2043,26.881237,88.80416,101.9757,NaN,0.0,3.216,,13 / 27,172516,2021-06-14 11:15:04:558
-0.47345,0.021515,9.766129,7.17E-4,1.53E-4,6.1E-4,1.9302,-30.3284,-42.3828,26.881237,88.80416,101.9757,NaN,0.0,3.216,,13 / 27,173016,2021-06-14 11:15:05:058
-0.468658,0.002365,9.75177,0.002762,6.1E-5,-1.98E-4,1.9302,-30.809,-42.3019,26.881237,88.80416,101.9757,NaN,0.0,3.216,,13 / 27,173515,2021-06-14 11:15:05:557
-0.459076,0.007156,9.699097,-0.001328,6.1E-5,-1.07E-4,1.4023,-30.8105,-42.3935,26.881237,88.80416,101.9757,NaN,0.0,3.216,,14 / 26,174016,2021-06-14 11:15:06:058
-0.459076,-0.002426,9.723038,0.001511,-1.5E-5,-1.5E-5,1.6663,-30.8105,-42.8543,26.881237,88.80416,101.9757,NaN,0.0,3.216,,14 / 26,174516,2021-06-14 11:15:06:558
-0.459076,-0.002426,9.727814,8.09E-4,-5.49E-4,7.6E-5,1.4038,-31.0516,-43.367,26.881237,88.80416,101.9757,NaN,0.0,3.216,,13 / 27,175015,2021-06-14 11:15:07:057
-0.449509,-0.012009,9.723038,8.09E-4,-3.81E-4,-1.5E-5,1.9302,-30.5695,-44.8746,26.881237,88.80416,101.9757,NaN,0.0,3.216,,13 / 27,175515,2021-06-14 11:15:07:557
-0.444717,0.002365,9.737396,2.75E-4,1.53E-4,-1.98E-4,1.9302,-31.0501,-41.2491,26.881237,88.80416,101.9757,NaN,0.0,3.216,,11 / 27,176015,2021-06-14 11:15:08:057
-0.425568,0.021515,9.75177,3.66E-4,-2.9E-4,-1.98E-4,2.4582,-31.0486,-41.1575,26.881237,88.80416,101.9757,NaN,0.0,3.216,,11 / 27,176515,2021-06-14 11:15:08:557
-0.444717,0.016724,9.742188,-0.001053,6.1E-5,-1.98E-4,1.9302,-30.0873,-40.9042,26.881237,88.80416,101.9757,NaN,0.0,3.216,,11 / 27,177015,2021-06-14 11:15:09:057
-0.483017,0.021515,9.737396,-0.001053,1.68E-4,-1.5E-5,1.9302,-29.6066,-44.0216,26.881237,88.80416,101.9757,NaN,0.0,3.216,,11 / 27,177515,2021-06-14 11:15:09:557
-0.439926,0.031097,9.756546,-6.1E-4,-0.001175,9.61E-4,2.7222,-30.3253,-42.2455,26.881237,88.80416,101.9757,NaN,0.0,3.216,,11 / 27,178015,2021-06-14 11:15:10:057
-0.454285,0.016724,9.746979,-8.85E-4,-1.98E-4,-0.001083,2.4582,-30.5679,-40.7318,26.881237,88.80416,101.9757,NaN,0.0,3.216,,11 / 27,178515,2021-06-14 11:15:10:557
-0.492599,0.016724,9.756546,0.001251,4.27E-4,-1.98E-4,2.4582,-30.0858,-40.3061,26.881237,88.80416,101.9757,NaN,0.0,3.216,,12 / 27,179016,2021-06-14 11:15:11:058
-0.430344,0.045456,9.756546,0.001343,3.36E-4,-2.9E-4,2.9861,-30.0842,-41.2262,26.881237,88.80416,101.9757,NaN,0.0,3.216,,12 / 27,179516,2021-06-14 11:15:11:558
-0.47345,0.002365,9.737396,0.00116,-7.32E-4,2.44E-4,2.7222,-31.2881,-38.5406,26.881237,88.80416,101.9757,NaN,0.0,3.216,,13 / 27,180016,2021-06-14 11:15:12:058
-0.468658,-0.002426,9.766129,-2.59E-4,-3.81E-4,7.6E-5,2.7222,-30.5664,-37.648,26.881237,88.80416,101.9757,NaN,0.0,3.216,,13 / 27,180516,2021-06-14 11:15:12:558
-0.444717,0.021515,9.756546,0.0,-1.07E-4,-0.001358,3.2501,-30.3238,-38.6093,26.881237,88.80416,101.9757,NaN,0.0,3.216,,13 / 27,181015,2021-06-14 11:15:13:057
-0.483017,0.021515,9.756546,6.26E-4,-1.98E-4,-2.9E-4,2.7222,-29.3625,-40.8874,26.881237,88.80416,101.9757,NaN,0.0,3.216,,13 / 27,181516,2021-06-14 11:15:13:558
-0.468658,0.021515,9.756546,6.26E-4,-1.07E-4,-1.98E-4,2.7222,-29.3625,-40.3809,26.881237,88.80416,101.9757,NaN,0.0,3.216,,13 / 27,182016,2021-06-14 11:15:14:058
-0.454285,0.011932,9.761337,0.001785,-2.9E-4,-2.9E-4,2.7222,-29.8447,-39.7934,26.881237,88.80416,101.9757,NaN,0.0,3.216,,13 / 27,182515,2021-06-14 11:15:14:557
-0.444717,0.011932,9.756546,-1.68E-4,-2.9E-4,-8.24E-4,2.4582,-30.0858,-41.3177,26.881237,88.80416,101.9757,NaN,0.0,3.216,,13 / 27,183016,2021-06-14 11:15:15:058
-0.478241,0.031097,9.761337,4.43E-4,-2.9E-4,-1.5E-5,2.7222,-31.0486,-39.5935,26.881237,88.80416,101.9757,NaN,0.0,3.216,,13 / 27,183516,2021-06-14 11:15:15:558
-0.483017,0.016724,9.746979,-0.002121,2.44E-4,-1.98E-4,2.9861,-30.806,-39.5874,26.881237,88.80416,101.9757,NaN,0.0,3.216,,13 / 27,184015,2021-06-14 11:15:16:057
-0.468658,0.011932,9.713455,0.001068,-1.5E-5,-6.41E-4,2.7222,-30.3253,-40.7257,26.881237,88.80416,101.9757,NaN,0.0,3.216,,13 / 27,184515,2021-06-14 11:15:16:557
-0.449509,0.021515,9.742188,0.001068,5.19E-4,-5.49E-4,2.4582,-30.0858,-40.8127,26.881237,88.80416,101.9757,NaN,0.0,3.216,,14 / 27,185015,2021-06-14 11:15:17:057
-0.449509,0.026306,9.75177,5.34E-4,6.87E-4,-0.001083,1.9302,-30.5695,-41.8365,26.881237,88.80416,101.9757,NaN,0.0,3.216,,14 / 27,185516,2021-06-14 11:15:17:558
-0.478241,0.016724,9.732605,5.34E-4,4.27E-4,-1.98E-4,2.7222,-30.0858,-40.2603,26.881237,88.80416,101.9757,NaN,0.0,3.216,,14 / 27,186016,2021-06-14 11:15:18:058
-0.459076,0.026306,9.75177,8.85E-4,-1.98E-4,-5.49E-4,2.7222,-31.2881,-40.0589,26.881237,88.80416,101.9757,NaN,0.0,3.216,,14 / 27,186516,2021-06-14 11:15:18:558
-0.449509,0.021515,9.77092,5.49E-4,6.1E-5,-0.001083,2.7222,-31.2881,-41.0721,26.881237,88.80416,101.9757,NaN,0.0,3.216,,14 / 27,187016,2021-06-14 11:15:19:058
-0.47345,0.031097,9.756546,0.00116,-1.98E-4,-8.24E-4,2.1942,-31.5308,-40.6174,26.881237,88.80416,101.9757,NaN,0.0,3.216,,14 / 27,187515,2021-06-14 11:15:19:557
-0.478241,0.016724,9.77092,6.26E-4,-1.07E-4,-1.5E-5,1.9302,-31.7718,-40.6219,26.881237,88.80416,101.9757,NaN,0.0,3.216,,14 / 27,188015,2021-06-14 11:15:20:057
-0.459076,0.021515,9.746979,0.0,-1.07E-4,5.19E-4,2.1942,-31.7718,-41.5894,26.881237,88.80416,101.9757,NaN,0.0,3.216,,14 / 27,188516,2021-06-14 11:15:20:558
-0.478241,0.016724,9.718246,2.75E-4,-1.5E-5,7.6E-5,2.4582,-31.2897,-42.1295,26.881237,88.80416,101.9757,NaN,0.0,3.216,,13 / 27,189016,2021-06-14 11:15:21:058
-0.463867,0.011932,9.727814,6.26E-4,1.53E-4,7.6E-5,1.9302,-30.809,-39.7705,26.881237,88.80416,101.9757,NaN,0.0,3.216,,13 / 27,189516,2021-06-14 11:15:21:558
-0.468658,0.016724,9.761337,-4.43E-4,-9.92E-4,-6.41E-4,2.4582,-29.8447,-39.8392,26.881237,88.80416,101.9757,NaN,0.0,3.216,,14 / 27,190016,2021-06-14 11:15:22:058
-0.47345,0.007156,9.756546,-4.27E-4,-4.58E-4,-7.32E-4,2.9861,-30.5664,-40.6403,26.881237,88.80416,101.9757,NaN,0.0,3.216,,14 / 27,190516,2021-06-14 11:15:22:558
-0.468658,0.035873,9.737396,-3.51E-4,-9.92E-4,-2.9E-4,1.9302,-30.809,-39.7705,26.881237,88.80416,101.9757,NaN,0.0,3.216,,14 / 27,191016,2021-06-14 11:15:23:058
-0.47345,0.040665,9.746979,9.77E-4,-4.73E-4,-2.9E-4,2.4582,-31.0486,-38.6261,26.881237,88.80416,101.9757,NaN,0.0,3.216,,14 / 27,191516,2021-06-14 11:15:23:558
-0.459076,-0.007217,9.746979,0.0,6.1E-5,-3.81E-4,2.1942,-31.0501,-39.6851,26.881237,88.80416,101.9757,NaN,0.0,3.216,,14 / 27,192015,2021-06-14 11:15:24:057
-0.454285,0.021515,9.737396,-0.001511,-3.81E-4,-2.9E-4,2.7222,-31.5292,-38.4994,26.881237,88.80416,101.9757,NaN,0.0,3.216,,14 / 27,192515,2021-06-14 11:15:24:557
-0.468658,0.021515,9.732605,-9.61E-4,6.1E-5,-1.5E-5,2.4582,-30.5679,-38.707,26.881237,88.80416,101.9757,NaN,0.0,3.216,,14 / 27,193016,2021-06-14 11:15:25:058
-0.478241,0.007156,9.756546,-5.19E-4,-7.32E-4,4.27E-4,2.7222,-30.5664,-38.6612,26.881237,88.80416,101.9757,NaN,0.0,3.216,,14 / 27,193515,2021-06-14 11:15:25:557
-0.483017,0.045456,9.756546,-0.001144,-3.66E-4,5.19E-4,1.9302,-29.1244,-39.0396,26.881237,88.80416,101.9757,NaN,0.0,3.216,,14 / 27,194016,2021-06-14 11:15:26:058
-0.463867,0.021515,9.746979,-7.02E-4,-2.9E-4,3.36E-4,2.1942,-30.0873,-38.8321,26.881237,88.80416,101.9757,NaN,0.0,3.216,,14 / 27,194515,2021-06-14 11:15:26:557
-0.483017,0.011932,9.732605,-2.59E-4,4.27E-4,5.19E-4,2.4582,-30.3268,-38.7466,26.881237,88.80416,101.9757,NaN,0.0,3.216,,14 / 27,195015,2021-06-14 11:15:27:057
-0.459076,0.035873,9.708664,3.66E-4,1.53E-4,-1.07E-4,1.9302,-30.3284,-42.3828,26.881237,88.80416,101.9757,NaN,0.0,3.216,,14 / 27,195516,2021-06-14 11:15:27:558
-0.463867,0.021515,9.75177,9.0E-4,-1.5E-5,-9.92E-4,2.4582,-30.8075,-39.1724,26.881237,88.80416,101.9757,NaN,0.0,3.216,,13 / 27,196017,2021-06-14 11:15:28:059
-0.459076,0.007156,9.708664,9.2E-5,2.44E-4,-6.41E-4,2.1942,-30.0873,-40.8585,26.881237,88.80416,101.9757,NaN,0.0,3.216,,13 / 27,196515,2021-06-14 11:15:28:557
-0.487808,0.031097,9.746979,5.34E-4,-4.58E-4,-3.81E-4,1.9302,-30.3284,-40.358,26.881237,88.80416,101.9757,NaN,0.0,3.216,,13 / 27,197015,2021-06-14 11:15:29:057
-0.468658,0.016724,9.746979,-5.34E-4,-7.32E-4,1.53E-4,1.4023,-30.3299,-40.9561,26.881237,88.80416,101.9757,NaN,0.0,3.216,,13 / 27,197515,2021-06-14 11:15:29:557
-0.468658,0.021515,9.708664,-5.19E-4,-1.07E-4,-1.07E-4,1.9302,-30.5695,-44.368,26.881237,88.80416,101.9757,NaN,0.0,3.216,,13 / 27,198016,2021-06-14 11:15:30:058
-0.459076,0.021515,9.732605,-3.51E-4,1.53E-4,-1.98E-4,2.1942,-30.5679,-40.271,26.881237,88.80416,101.9757,NaN,0.0,3.216,,13 / 27,198516,2021-06-14 11:15:30:558
-0.444717,0.016724,9.718246,-7.93E-4,-8.24E-4,5.19E-4,1.9302,-31.0501,-41.7557,26.881237,88.80416,101.9757,NaN,0.0,3.216,,13 / 27,199016,2021-06-14 11:15:31:058
-0.47345,0.040665,9.713455,6.26E-4,-1.98E-4,7.6E-5,1.1398,-31.0516,-40.8813,26.881237,88.80416,101.9757,NaN,0.0,3.216,,13 / 27,199515,2021-06-14 11:15:31:557
-0.478241,0.035873,9.732605,8.09E-4,2.44E-4,1.53E-4,1.9302,-31.5308,-39.65,26.881237,88.80416,101.9757,NaN,0.0,3.216,,13 / 27,200016,2021-06-14 11:15:32:058
-0.478241,0.016724,9.761337,-2.59E-4,-2.9E-4,-2.9E-4,2.1942,-31.0501,-39.6851,26.881237,88.80416,101.9757,NaN,0.0,3.216,,13 / 27,200515,2021-06-14 11:15:32:557
-0.463867,0.021515,9.732605,-0.001236,-7.32E-4,-6.41E-4,1.6663,-30.5695,-40.8691,26.881237,88.80416,101.9757,NaN,0.0,3.216,,13 / 27,201015,2021-06-14 11:15:33:057
-0.492599,0.011932,9.746979,-0.001495,2.44E-4,-1.98E-4,2.1942,-30.3268,-39.8056,26.881237,88.80416,101.9757,NaN,0.0,3.216,,13 / 27,201515,2021-06-14 11:15:33:557
-0.454285,0.011932,9.746979,9.2E-5,-1.07E-4,5.19E-4,1.9302,-30.809,-39.7705,26.881237,88.80416,101.9757,NaN,0.0,3.216,,12 / 27,202015,2021-06-14 11:15:34:057
-0.468658,0.002365,9.746979,-6.1E-4,-1.98E-4,-0.001083,1.9302,-31.5308,-40.6631,26.881237,88.80416,101.9757,NaN,0.0,3.216,,12 / 27,202516,2021-06-14 11:15:34:558
-0.463867,0.045456,9.766129,0.001068,-1.07E-4,-1.07E-4,1.9302,-31.2912,-40.1962,26.881237,88.80416,101.9757,NaN,0.0,3.216,,13 / 27,203016,2021-06-14 11:15:35:058
-0.47345,0.007156,9.742188,-5.19E-4,6.1E-5,7.6E-5,2.1942,-30.809,-40.2313,26.881237,88.80416,101.9757,NaN,0.0,3.216,,13 / 27,203515,2021-06-14 11:15:35:557
-0.47345,0.011932,9.713455,-7.93E-4,-1.98E-4,-6.41E-4,1.9302,-30.809,-39.7705,26.881237,88.80416,101.9757,NaN,0.0,3.216,,13 / 27,204015,2021-06-14 11:15:36:057
-0.478241,0.040665,9.75177,0.001343,-2.9E-4,-1.07E-4,1.9302,-30.5695,-39.8117,26.881237,88.80416,101.9757,NaN,0.0,3.216,,13 / 27,204516,2021-06-14 11:15:36:558
-0.463867,0.016724,9.746979,-0.001419,6.1E-5,-3.81E-4,2.4582,-29.8447,-39.8392,26.881237,88.80416,101.9757,NaN,0.0,3.216,,13 / 27,205016,2021-06-14 11:15:37:058
-0.459076,0.016724,9.737396,-1.68E-4,-5.49E-4,-2.9E-4,2.1942,-29.6051,-42.4576,26.881237,88.80416,101.9757,NaN,0.0,3.216,,13 / 27,205516,2021-06-14 11:15:37:558
-0.468658,0.016724,9.737396,-3.51E-4,-1.98E-4,-5.49E-4,1.4023,-30.0888,-40.4892,26.881237,88.80416,101.9757,NaN,0.0,3.216,,13 / 27,206016,2021-06-14 11:15:38:058
-0.483017,0.021515,9.713455,6.26E-4,-6.41E-4,-5.49E-4,2.1942,-29.1244,-40.5121,26.881237,88.80416,101.9757,NaN,0.0,3.216,,13 / 27,206516,2021-06-14 11:15:38:558
-0.47345,0.026306,9.718246,8.09E-4,6.1E-5,-3.81E-4,1.9302,-29.8462,-40.4373,26.881237,88.80416,101.9757,NaN,0.0,3.216,,12 / 27,207016,2021-06-14 11:15:39:058
-0.449509,0.016724,9.703873,-7.6E-5,1.53E-4,7.6E-5,1.4023,-30.3299,-39.9429,26.881237,88.80416,101.9757,NaN,0.0,3.216,,12 / 27,207515,2021-06-14 11:15:39:557
-0.454285,0.011932,9.75177,-7.6E-5,-4.73E-4,1.53E-4,1.6663,-29.6066,-40.0177,26.881237,88.80416,101.9757,NaN,0.0,3.216,,12 / 27,208016,2021-06-14 11:15:40:058
-0.459076,0.002365,9.732605,-7.02E-4,8.7E-4,-1.98E-4,1.9302,-30.3284,-40.358,26.881237,88.80416,101.9757,NaN,0.0,3.216,,12 / 27,208516,2021-06-14 11:15:40:558
-0.459076,-0.007217,9.708664,-0.001144,-5.49E-4,1.53E-4,1.6663,-31.0501,-39.7766,26.881237,88.80416,101.9757,NaN,0.0,3.216,,12 / 27,209015,2021-06-14 11:15:41:057
-0.47345,-0.007217,9.713455,0.002487,-5.49E-4,-3.81E-4,1.9302,-30.5695,-40.3168,26.881237,88.80416,101.9757,NaN,0.0,3.216,,12 / 27,209515,2021-06-14 11:15:41:557
-0.463867,0.002365,9.723038,-2.59E-4,-1.5E-5,-1.98E-4,1.6663,-30.3284,-40.9103,26.881237,88.80416,101.9757,NaN,0.0,3.216,,12 / 27,210016,2021-06-14 11:15:42:058
-0.454285,0.011932,9.732605,-0.001862,-0.001175,-1.5E-5,1.4023,-30.571,-41.4215,26.881237,88.80416,101.9757,NaN,0.0,3.216,,12 / 27,210516,2021-06-14 11:15:42:558
-0.449509,0.011932,9.713455,-0.001678,-6.41E-4,-1.98E-4,1.6663,-31.2912,-40.242,26.881237,88.80416,101.9757,NaN,0.0,3.216,,12 / 26,211015,2021-06-14 11:15:43:057
-0.459076,0.002365,9.699097,0.00116,-2.9E-4,-1.5E-5,1.4023,-30.3299,-41.4612,26.881237,88.80416,101.9757,NaN,0.0,3.216,,12 / 26,211515,2021-06-14 11:15:43:557
-0.47345,0.026306,9.718246,-7.02E-4,-1.5E-5,-5.49E-4,1.6663,-30.5695,-42.3889,26.881237,88.80416,101.9757,NaN,0.0,3.216,,12 / 27,212015,2021-06-14 11:15:44:057
-0.468658,0.026306,9.713455,-1.68E-4,-2.9E-4,2.44E-4,1.9302,-29.3655,-40.5182,26.881237,88.80416,101.9757,NaN,0.0,3.216,,12 / 27,212516,2021-06-14 11:15:44:558
-0.449509,0.002365,9.737396,-3.51E-4,5.95E-4,2.44E-4,1.6663,-30.3284,-40.4037,26.881237,88.80416,101.9757,NaN,0.0,3.216,,14 / 27,213019,2021-06-14 11:15:45:061
-0.444717,-0.007217,9.694305,2.75E-4,-1.07E-4,7.6E-5,1.9302,-29.6066,-39.4653,26.881237,88.80416,101.9757,NaN,0.0,3.216,,14 / 27,213516,2021-06-14 11:15:45:558
-0.483017,0.007156,9.723038,1.5E-5,6.1E-5,-6.41E-4,2.4582,-29.8447,-40.3458,26.881237,88.80416,101.9757,NaN,0.0,3.216,,14 / 27,214015,2021-06-14 11:15:46:057
-0.459076,0.016724,9.694305,-7.93E-4,6.1E-5,-3.81E-4,1.4023,-29.8477,-40.5289,26.881237,88.80416,101.9757,NaN,0.0,3.216,,14 / 27,214516,2021-06-14 11:15:46:558
-0.449509,0.002365,9.703873,-1.68E-4,-1.07E-4,-1.07E-4,1.6663,-30.8105,-40.8295,26.881237,88.80416,101.9757,NaN,0.0,3.216,,14 / 27,215015,2021-06-14 11:15:47:057
-0.439926,0.002365,9.699097,0.0,4.27E-4,-5.49E-4,1.9302,-30.0873,-40.9042,26.881237,88.80416,101.9757,NaN,0.0,3.216,,14 / 27,215516,2021-06-14 11:15:47:558
-0.454285,-0.002426,9.708664,-7.6E-5,-1.98E-4,7.6E-5,2.4582,-30.0858,-40.3061,26.881237,88.80416,101.9757,NaN,0.0,3.216,,14 / 27,216016,2021-06-14 11:15:48:058
-0.430344,0.002365,9.732605,3.66E-4,4.27E-4,7.6E-5,1.9302,-28.8834,-40.0925,26.881237,88.80416,101.9757,NaN,0.0,3.216,,14 / 27,216515,2021-06-14 11:15:48:557
-0.463867,0.021515,9.713455,7.17E-4,6.1E-5,7.6E-5,1.6663,-30.0888,-39.9368,26.881237,88.80416,101.9757,NaN,0.0,3.216,,14 / 27,217015,2021-06-14 11:15:49:057
-0.463867,0.011932,9.737396,-7.93E-4,-1.98E-4,-1.5E-5,2.4582,-29.6051,-40.3854,26.881237,88.80416,101.9757,NaN,0.0,3.216,,14 / 27,217515,2021-06-14 11:15:49:557
-0.444717,0.002365,9.723038,-1.68E-4,-5.49E-4,-1.98E-4,1.9302,-30.809,-39.7705,26.881237,88.80416,101.9757,NaN,0.0,3.216,,14 / 27,218015,2021-06-14 11:15:50:057
-0.449509,0.002365,9.713455,-0.001144,-6.41E-4,-2.9E-4,2.4582,-29.1229,-42.4911,26.881237,88.80416,101.9757,NaN,0.0,3.216,,14 / 27,218515,2021-06-14 11:15:50:557
-0.483017,0.002365,9.718246,-6.1E-4,-7.32E-4,7.6E-5,1.6663,-29.6066,-40.0177,26.881237,88.80416,101.9757,NaN,0.0,3.216,,13 / 27,219016,2021-06-14 11:15:51:058
-0.459076,0.016724,9.723038,3.66E-4,6.1E-5,-1.98E-4,1.6663,-30.5695,-39.8575,26.881237,88.80416,101.9757,NaN,0.0,3.216,,13 / 27,219515,2021-06-14 11:15:51:557
-0.478241,0.011932,9.742188,4.58E-4,4.27E-4,2.44E-4,2.1942,-29.8462,-40.8981,26.881237,88.80416,101.9757,NaN,0.0,3.216,,13 / 27,220016,2021-06-14 11:15:52:058
-0.478241,0.007156,9.708664,7.17E-4,6.1E-5,-1.07E-4,1.6663,-30.5695,-41.3757,26.881237,88.80416,101.9757,NaN,0.0,3.216,,13 / 27,220515,2021-06-14 11:15:52:557
-0.444717,-0.002426,9.703873,1.5E-5,-1.5E-5,-1.5E-5,1.9302,-29.8462,-41.4505,26.881237,88.80416,101.9757,NaN,0.0,3.216,,13 / 27,221017,2021-06-14 11:15:53:059
-0.444717,0.016724,9.703873,-2.59E-4,6.1E-5,-1.07E-4,1.6663,-31.0501,-41.8015,26.881237,88.80416,101.9757,NaN,0.0,3.216,,13 / 27,221515,2021-06-14 11:15:53:557
-0.449509,0.007156,9.732605,-3.51E-4,3.36E-4,1.53E-4,1.9302,-30.5695,-41.8365,26.881237,88.80416,101.9757,NaN,0.0,3.216,,12 / 27,222015,2021-06-14 11:15:54:057
-0.468658,-0.002426,9.713455,8.85E-4,8.7E-4,-1.07E-4,1.1398,-30.8121,-41.9342,26.881237,88.80416,101.9757,NaN,0.0,3.216,,12 / 27,222515,2021-06-14 11:15:54:557
-0.425568,0.007156,9.708664,-1.68E-4,-1.07E-4,-3.81E-4,1.4023,-30.0888,-44.0338,26.881237,88.80416,101.9757,NaN,0.0,3.216,,12 / 27,223015,2021-06-14 11:15:55:057
-0.454285,-0.021576,9.732605,-5.19E-4,-5.49E-4,-1.07E-4,2.1942,-31.0501,-40.6967,26.881237,88.80416,101.9757,NaN,0.0,3.216,,12 / 27,223515,2021-06-14 11:15:55:557
-0.444717,0.007156,9.723038,-4.43E-4,-2.9E-4,-2.9E-4,1.4023,-29.8477,-41.5421,26.881237,88.80416,101.9757,NaN,0.0,3.216,,12 / 27,224015,2021-06-14 11:15:56:057
-0.444717,0.002365,9.718246,-7.6E-5,-1.5E-5,-7.32E-4,1.4023,-30.0888,-40.4892,26.881237,88.80416,101.9757,NaN,0.0,3.216,,12 / 27,224516,2021-06-14 11:15:56:558
-0.459076,-0.012009,9.732605,4.58E-4,2.44E-4,-2.9E-4,1.6663,-29.6066,-41.0294,26.881237,88.80416,101.9757,NaN,0.0,3.216,,12 / 27,225016,2021-06-14 11:15:57:058
-0.454285,-0.0168,9.723038,4.58E-4,-5.49E-4,-4.58E-4,1.4023,-30.8105,-40.3687,26.881237,88.80416,101.9757,NaN,0.0,3.216,,12 / 27,225515,2021-06-14 11:15:57:557
-0.430344,-0.0168,9.723038,-1.68E-4,1.53E-4,4.27E-4,1.9302,-30.5695,-41.33,26.881237,88.80416,101.9757,NaN,0.0,3.216,,12 / 27,226016,2021-06-14 11:15:58:058
-0.439926,0.002365,9.727814,6.26E-4,6.1E-5,5.19E-4,1.6663,-29.126,-41.1102,26.881237,88.80416,101.9757,NaN,0.0,3.216,,12 / 27,226515,2021-06-14 11:15:58:557
-0.459076,-0.0168,9.723038,7.17E-4,-1.07E-4,-9.92E-4,1.6663,-29.8477,-38.9648,26.881237,88.80416,101.9757,NaN,0.0,3.216,,12 / 27,227015,2021-06-14 11:15:59:057
-0.415985,0.007156,9.694305,2.75E-4,4.27E-4,-6.41E-4,1.9302,-28.6438,-41.6519,26.881237,88.80416,101.9757,NaN,0.0,3.216,,12 / 27,227516,2021-06-14 11:15:59:558
-0.444717,0.002365,9.708664,0.0,3.36E-4,6.87E-4,1.6663,-29.6066,-40.5243,26.881237,88.80416,101.9757,NaN,0.0,3.216,,13 / 27,228015,2021-06-14 11:16:00:057
-0.430344,-0.002426,9.713455,-7.6E-5,-0.001266,-1.07E-4,2.1942,-30.5679,-41.2842,26.881237,88.80416,101.9757,NaN,0.0,3.216,,13 / 27,228516,2021-06-14 11:16:00:558
-0.459076,-0.002426,9.699097,-0.001328,-4.58E-4,-4.58E-4,1.9302,-29.6066,-40.4785,26.881237,88.80416,101.9757,NaN,0.0,3.216,,15 / 27,229015,2021-06-14 11:16:01:057
-0.439926,0.002365,9.708664,0.0,-1.5E-5,4.27E-4,1.4023,-30.571,-41.9281,26.881237,88.80416,101.9757,NaN,0.0,3.216,,15 / 27,229515,2021-06-14 11:16:01:557
-0.439926,-0.002426,9.699097,5.34E-4,-1.22E-4,6.56E-4,1.6663,-30.3284,-40.9103,26.881237,88.80416,101.9757,NaN,0.0,3.216,,14 / 27,230016,2021-06-14 11:16:02:058
-0.459076,0.007156,9.718246,4.58E-4,-3.05E-4,-6.1E-5,1.6663,-29.6066,-40.5243,26.881237,88.80416,101.9757,NaN,0.0,3.216,,14 / 27,230516,2021-06-14 11:16:02:558
-0.454285,0.021515,9.713455,9.2E-5,1.37E-4,-2.44E-4,1.6663,-30.3284,-41.4154,26.881237,88.80416,101.9757,NaN,0.0,3.216,,14 / 27,231015,2021-06-14 11:16:03:057
-0.449509,-0.007217,9.727814,2.75E-4,4.12E-4,1.98E-4,1.4038,-31.0516,-41.8472,26.881237,88.80416,101.9757,NaN,0.0,3.216,,14 / 27,231515,2021-06-14 11:16:03:557
-0.444717,-0.002426,9.742188,-7.02E-4,-8.39E-4,-1.53E-4,0.6119,-30.3314,-41.0934,26.881237,88.80416,101.9757,NaN,0.0,3.216,,14 / 27,232015,2021-06-14 11:16:04:057
-0.430344,0.016724,9.699097,2.75E-4,4.12E-4,-5.04E-4,1.6663,-30.5695,-40.8691,26.881237,88.80416,101.9757,NaN,0.0,3.216,,14 / 27,232515,2021-06-14 11:16:04:557
-0.435135,0.002365,9.699097,-7.02E-4,1.37E-4,1.98E-4,1.6663,-30.5695,-41.8823,26.881237,88.80416,101.9757,NaN,0.0,3.216,,14 / 27,233015,2021-06-14 11:16:05:057
-0.454285,-0.007217,9.742188,2.75E-4,-1.22E-4,-6.87E-4,1.9302,-30.3284,-39.8514,26.881237,88.80416,101.9757,NaN,0.0,3.216,,14 / 27,233515,2021-06-14 11:16:05:557
-0.420776,0.011932,9.727814,3.66E-4,-1.22E-4,-4.12E-4,1.4023,-29.8477,-41.0355,26.881237,88.80416,101.9757,NaN,0.0,3.216,,13 / 27,234016,2021-06-14 11:16:06:058
-0.444717,0.002365,9.708664,-7.02E-4,-3.1E-5,9.16E-4,1.9302,-30.3284,-40.863,26.881237,88.80416,101.9757,NaN,0.0,3.216,,13 / 27,234515,2021-06-14 11:16:06:557
-0.430344,-0.0168,9.713455,-5.19E-4,0.001038,5.65E-4,2.1942,-30.0873,-40.8585,26.881237,88.80416,101.9757,NaN,0.0,3.216,,13 / 27,235015,2021-06-14 11:16:07:057
-0.444717,0.016724,9.718246,-4.27E-4,2.29E-4,-5.04E-4,1.9302,-30.809,-40.2771,26.881237,88.80416,101.9757,NaN,0.0,3.216,,13 / 27,235516,2021-06-14 11:16:07:558
-0.439926,0.011932,9.708664,-7.6E-5,0.001129,-2.44E-4,1.9302,-28.8834,-40.5991,26.881237,88.80416,101.9757,NaN,0.0,3.216,,14 / 27,236016,2021-06-14 11:16:08:058
-0.459076,0.011932,9.699097,-7.02E-4,-3.81E-4,-4.12E-4,2.1942,-29.364,-40.979,26.881237,88.80416,101.9757,NaN,0.0,3.216,,14 / 27,236515,2021-06-14 11:16:08:557
-0.468658,-0.002426,9.737396,4.43E-4,-3.1E-5,-3.36E-4,1.9302,-30.3284,-40.863,26.881237,88.80416,101.9757,NaN,0.0,3.216,,14 / 27,237015,2021-06-14 11:16:09:057
-0.435135,0.002365,9.746979,1.83E-4,1.37E-4,5.65E-4,1.6663,-29.3655,-42.0822,26.881237,88.80416,101.9757,NaN,0.0,3.216,,14 / 27,237515,2021-06-14 11:16:09:557
-0.454285,0.011932,9.708664,-4.27E-4,5.95E-4,-4.12E-4,1.4023,-29.6082,-39.5569,26.881237,88.80416,101.9757,NaN,0.0,3.216,,13 / 26,238017,2021-06-14 11:16:10:059
-0.435135,0.007156,9.713455,-2.59E-4,-3.1E-5,3.1E-5,1.9302,-31.0501,-39.7308,26.881237,88.80416,101.9757,NaN,0.0,3.216,,13 / 26,238516,2021-06-14 11:16:10:558
-0.454285,-0.002426,9.718246,-4.43E-4,-2.14E-4,-3.36E-4,1.4023,-29.8477,-40.5289,26.881237,88.80416,101.9757,NaN,0.0,3.216,,13 / 27,239015,2021-06-14 11:16:11:057
-0.454285,-0.002426,9.708664,3.66E-4,-3.81E-4,-4.12E-4,1.9302,-30.5695,-42.8482,26.881237,88.80416,101.9757,NaN,0.0,3.216,,13 / 27,239515,2021-06-14 11:16:11:557
-0.439926,-0.007217,9.723038,-6.1E-4,-3.1E-5,1.98E-4,2.1942,-30.3268,-44.3619,26.881237,88.80416,101.9757,NaN,0.0,3.216,,13 / 27,240016,2021-06-14 11:16:12:058
-0.459076,-0.012009,9.689514,0.001068,-1.22E-4,-1.53E-4,1.9302,-30.809,-42.8085,26.881237,88.80416,101.9757,NaN,0.0,3.216,,13 / 27,240515,2021-06-14 11:16:12:557
-0.454285,-0.002426,9.718246,9.0E-4,4.12E-4,1.22E-4,1.4023,-30.571,-42.4347,26.881237,88.80416,101.9757,NaN,0.0,3.216,,13 / 27,241015,2021-06-14 11:16:13:057
-0.420776,-0.007217,9.746979,3.66E-4,6.71E-4,2.9E-4,1.9302,-30.3284,-41.8762,26.881237,88.80416,101.9757,NaN,0.0,3.216,,13 / 27,241515,2021-06-14 11:16:13:557
-0.430344,0.016724,9.756546,7.17E-4,-4.73E-4,-1.53E-4,1.9302,-30.5695,-40.3168,26.881237,88.80416,101.9757,NaN,0.0,3.216,,13 / 27,242015,2021-06-14 11:16:14:057
-0.439926,0.021515,9.77092,-0.001419,-3.1E-5,3.81E-4,1.6663,-30.5695,-41.8823,26.881237,88.80416,101.9757,NaN,0.0,3.216,,13 / 27,242516,2021-06-14 11:16:14:558
-0.435135,0.031097,9.75177,-0.001862,6.1E-5,7.32E-4,1.9302,-31.0501,-41.2491,26.881237,88.80416,101.9757,NaN,0.0,3.216,,13 / 27,243016,2021-06-14 11:16:15:058
-0.449509,0.011932,9.756546,2.75E-4,8.54E-4,5.65E-4,1.6663,-29.3655,-41.0706,26.881237,88.80416,101.9757,NaN,0.0,3.216,,13 / 27,243515,2021-06-14 11:16:15:557
-0.439926,0.007156,9.756546,-2.59E-4,1.37E-4,-5.04E-4,2.1942,-29.6051,-41.4444,26.881237,88.80416,101.9757,NaN,0.0,3.216,,13 / 27,244015,2021-06-14 11:16:16:057
-0.47345,0.011932,9.77092,8.09E-4,-1.22E-4,3.81E-4,1.6663,-29.8477,-40.4831,26.881237,88.80416,101.9757,NaN,0.0,3.216,,13 / 27,244515,2021-06-14 11:16:16:557
-0.449509,0.007156,9.742188,-7.6E-5,-3.1E-5,2.9E-4,2.1942,-29.1244,-40.0055,26.881237,88.80416,101.9757,NaN,0.0,3.216,,13 / 27,245016,2021-06-14 11:16:17:058
-0.454285,0.011932,9.742188,5.49E-4,-4.73E-4,-6.1E-5,1.6663,-28.8849,-41.6565,26.881237,88.80416,101.9757,NaN,0.0,3.216,,13 / 27,245515,2021-06-14 11:16:17:557
-0.47345,0.026306,9.732605,1.83E-4,-3.1E-5,-7.78E-4,2.1942,-29.8462,-41.9113,26.881237,88.80416,101.9757,NaN,0.0,3.216,,13 / 27,246015,2021-06-14 11:16:18:057
-0.444717,0.021515,9.699097,-2.59E-4,-6.56E-4,3.1E-5,1.9302,-30.0873,-40.3976,26.881237,88.80416,101.9757,NaN,0.0,3.216,,13 / 27,246516,2021-06-14 11:16:18:558
-0.435135,-0.002426,9.713455,-5.19E-4,3.2E-4,-6.1E-5,1.6663,-29.3655,-41.0706,26.881237,88.80416,101.9757,NaN,0.0,3.216,,13 / 27,247015,2021-06-14 11:16:19:057
-0.47345,0.007156,9.713455,-7.6E-5,6.1E-5,-8.7E-4,2.1942,-30.3268,-41.3239,26.881237,88.80416,101.9757,NaN,0.0,3.216,,13 / 27,247515,2021-06-14 11:16:19:557
-0.449509,0.011932,9.708664,-4.27E-4,-5.65E-4,1.22E-4,1.1383,-29.6082,-44.1589,26.881237,88.80416,101.9757,NaN,0.0,3.216,,13 / 27,248016,2021-06-14 11:16:20:058
-0.439926,0.016724,9.694305,4.58E-4,2.29E-4,-2.44E-4,1.1398,-30.571,-42.4805,26.881237,88.80416,101.9757,NaN,0.0,3.216,,13 / 27,248515,2021-06-14 11:16:20:557
-0.444717,-0.012009,9.713455,-3.51E-4,5.95E-4,3.81E-4,1.4038,-31.7734,-41.7267,26.881237,88.80416,101.9757,NaN,0.0,3.216,,13 / 27,249015,2021-06-14 11:16:21:057
-0.430344,0.002365,9.732605,2.75E-4,1.37E-4,7.32E-4,1.6663,-31.0501,-39.7766,26.881237,88.80416,101.9757,NaN,0.0,3.216,,13 / 27,249515,2021-06-14 11:16:21:557
-0.468658,-0.007217,9.727814,1.5E-5,3.2E-4,-6.1E-5,1.4023,-29.8477,-41.5421,26.881237,88.80416,101.9757,NaN,0.0,3.216,,13 / 27,250016,2021-06-14 11:16:22:058
-0.449509,-0.002426,9.713455,-4.43E-4,-4.73E-4,3.81E-4,1.4023,-30.571,-40.9149,26.881237,88.80416,101.9757,NaN,0.0,3.216,,13 / 27,250515,2021-06-14 11:16:22:557
-0.449509,-0.002426,9.689514,-2.59E-4,-4.73E-4,-2.44E-4,1.4023,-30.0888,-40.4892,26.881237,88.80416,101.9757,NaN,0.0,3.216,,13 / 27,251015,2021-06-14 11:16:23:057
-0.435135,0.007156,9.742188,-7.93E-4,8.54E-4,-6.1E-5,1.9302,-30.809,-43.3151,26.881237,88.80416,101.9757,NaN,0.0,3.216,,13 / 27,251515,2021-06-14 11:16:23:557
-0.454285,0.007156,9.732605,0.001694,7.63E-4,-4.12E-4,1.6663,-30.0888,-38.9252,26.881237,88.80416,101.9757,NaN,0.0,3.216,,13 / 27,252015,2021-06-14 11:16:24:057
-0.463867,-0.0168,9.732605,9.2E-5,-9.16E-4,3.1E-5,1.6663,-29.3655,-40.0574,26.881237,88.80416,101.9757,NaN,0.0,3.216,,13 / 27,252515,2021-06-14 11:16:24:557
-0.449509,0.011932,9.742188,-0.001053,-3.97E-4,-7.78E-4,1.9302,-30.3284,-40.863,26.881237,88.80416,101.9757,NaN,0.0,3.216,,13 / 27,253015,2021-06-14 11:16:25:057
-0.459076,0.011932,9.713455,2.75E-4,3.2E-4,-8.7E-4,1.9302,-31.0501,-39.2242,26.881237,88.80416,101.9757,NaN,0.0,3.216,,13 / 27,253516,2021-06-14 11:16:25:558
-0.444717,0.011932,9.737396,0.001419,4.12E-4,-8.7E-4,1.6663,-30.0888,-39.9368,26.881237,88.80416,101.9757,NaN,0.0,3.216,,13 / 27,254016,2021-06-14 11:16:26:058
-0.463867,-0.007217,9.718246,7.17E-4,6.1E-5,-4.12E-4,1.4023,-29.8477,-39.5172,26.881237,88.80416,101.9757,NaN,0.0,3.216,,13 / 27,254516,2021-06-14 11:16:26:558
-0.454285,0.011932,9.718246,-1.68E-4,1.37E-4,-8.7E-4,1.6663,-30.0888,-39.9368,26.881237,88.80416,101.9757,NaN,0.0,3.216,,13 / 27,255016,2021-06-14 11:16:27:058
-0.454285,-0.0168,9.737396,1.83E-4,6.71E-4,-2.44E-4,1.4023,-30.3299,-41.4612,26.881237,88.80416,101.9757,NaN,0.0,3.216,,13 / 27,255515,2021-06-14 11:16:27:557
-0.454285,0.007156,9.699097,3.66E-4,6.87E-4,-3.36E-4,1.4023,-28.8849,-41.1972,26.881237,88.80416,101.9757,NaN,0.0,3.216,,13 / 27,256015,2021-06-14 11:16:28:057
-0.439926,0.002365,9.708664,-9.77E-4,-6.56E-4,5.65E-4,1.9302,-30.5695,-42.3431,26.881237,88.80416,101.9757,NaN,0.0,3.216,,13 / 27,256515,2021-06-14 11:16:28:557
-0.435135,0.016724,9.727814,-0.001587,-3.1E-5,-4.12E-4,1.9302,-30.809,-41.7953,26.881237,88.80416,101.9757,NaN,0.0,3.216,,13 / 27,257015,2021-06-14 11:16:29:057
-0.444717,-0.012009,9.708664,-6.1E-4,6.1E-5,4.73E-4,1.1398,-31.2927,-41.8533,26.881237,88.80416,101.9757,NaN,0.0,3.216,,13 / 27,257515,2021-06-14 11:16:29:557
-0.439926,0.011932,9.713455,-2.59E-4,4.12E-4,-1.53E-4,1.4023,-30.0888,-46.0587,26.881237,88.80416,101.9757,NaN,0.0,3.216,,13 / 27,258016,2021-06-14 11:16:30:058
-0.449509,-0.007217,9.708664,5.49E-4,-5.65E-4,-4.12E-4,1.9302,-31.2912,-41.2094,26.881237,88.80416,101.9757,NaN,0.0,3.216,,13 / 27,258516,2021-06-14 11:16:30:558
-0.430344,0.002365,9.684723,1.5E-5,0.00148,5.65E-4,1.6663,-30.0888,-40.4434,26.881237,88.80416,101.9757,NaN,0.0,3.216,,13 / 27,259015,2021-06-14 11:16:31:057
-0.415985,0.007156,9.708664,3.66E-4,-1.22E-4,3.1E-5,1.4023,-30.571,-40.9149,26.881237,88.80416,101.9757,NaN,0.0,3.216,,13 / 27,259516,2021-06-14 11:16:31:558
-0.444717,-0.0168,9.699097,-0.001144,6.71E-4,3.81E-4,1.6663,-29.8477,-40.9897,26.881237,88.80416,101.9757,NaN,0.0,3.216,,13 / 27,260016,2021-06-14 11:16:32:058
-0.372894,0.107712,9.713455,-5.19E-4,2.29E-4,0.003403,2.1942,-30.3268,-40.3122,26.881237,88.80416,101.9757,NaN,0.0,3.216,,13 / 27,260515,2021-06-14 11:16:32:557
-0.47345,-0.012009,9.703873,-4.27E-4,-5.65E-4,0.00119,1.6663,-29.3655,-41.5771,26.881237,88.80416,101.9757,NaN,0.0,3.216,,13 / 27,261015,2021-06-14 11:16:33:057
-0.454285,-0.002426,9.694305,-2.59E-4,0.001038,9.16E-4,1.6663,-30.0888,-40.4434,26.881237,88.80416,101.9757,NaN,0.0,3.216,,13 / 27,261515,2021-06-14 11:16:33:557
-0.425568,-0.007217,9.694305,2.75E-4,5.95E-4,0.00119,2.1942,-29.6051,-40.9378,26.881237,88.80416,101.9757,NaN,0.0,3.216,,13 / 27,262015,2021-06-14 11:16:34:057
-0.454285,0.002365,9.713455,6.26E-4,-3.97E-4,-2.44E-4,1.9302,-28.8834,-41.1041,26.881237,88.80416,101.9757,NaN,0.0,3.216,,13 / 27,262515,2021-06-14 11:16:34:557
-0.444717,0.002365,9.689514,-1.68E-4,1.37E-4,-3.36E-4,1.9302,-28.8834,-41.1041,26.881237,88.80416,101.9757,NaN,0.0,3.216,,13 / 27,263015,2021-06-14 11:16:35:057
-0.430344,0.007156,9.713455,-5.19E-4,1.37E-4,-1.53E-4,1.6663,-30.3284,-39.8972,26.881237,88.80416,101.9757,NaN,0.0,3.216,,13 / 27,263515,2021-06-14 11:16:35:557
-0.502182,0.026306,9.723038,-6.1E-4,6.71E-4,7.32E-4,2.1942,-30.5679,-40.7776,26.881237,88.80416,101.9757,NaN,0.0,3.216,,13 / 27,264015,2021-06-14 11:16:36:057
-0.492599,-0.021576,9.708664,-6.1E-4,5.04E-4,0.002243,0.8759,-29.1275,-40.7425,26.881237,88.80416,101.9757,NaN,0.0,3.216,,13 / 27,264515,2021-06-14 11:16:36:557
-0.454285,0.011932,9.713455,-7.6E-5,-3.1E-5,-0.001404,1.9302,-30.0873,-40.9042,26.881237,88.80416,101.9757,NaN,0.0,3.216,,13 / 27,265016,2021-06-14 11:16:37:058
-0.435135,0.002365,9.708664,-1.68E-4,-5.65E-4,-3.36E-4,1.6663,-29.6066,-42.5491,26.881237,88.80416,101.9757,NaN,0.0,3.216,,13 / 27,265516,2021-06-14 11:16:37:558
-0.444717,-0.007217,9.723038,-9.61E-4,-2.14E-4,2.9E-4,1.6663,-30.3284,-42.9352,26.881237,88.80416,101.9757,NaN,0.0,3.216,,13 / 27,266015,2021-06-14 11:16:38:057
-0.435135,-0.002426,9.713455,-2.59E-4,-5.65E-4,-2.44E-4,1.9302,-31.0501,-40.7425,26.881237,88.80416,101.9757,NaN,0.0,3.216,,13 / 27,266515,2021-06-14 11:16:38:557
-0.444717,-0.002426,9.737396,-2.59E-4,2.29E-4,1.98E-4,1.4023,-30.8105,-41.8884,26.881237,88.80416,101.9757,NaN,0.0,3.216,,13 / 27,267015,2021-06-14 11:16:39:057
-0.449509,0.011932,9.713455,-7.6E-5,-1.22E-4,1.22E-4,1.9302,-30.809,-41.2903,26.881237,88.80416,101.9757,NaN,0.0,3.216,,13 / 27,267516,2021-06-14 11:16:39:558
-0.435135,0.021515,9.718246,-2.59E-4,5.95E-4,6.56E-4,1.1398,-30.3299,-41.0019,26.881237,88.80416,101.9757,NaN,0.0,3.216,,13 / 27,268016,2021-06-14 11:16:40:058
-0.430344,-0.002426,9.708664,-1.68E-4,5.95E-4,1.22E-4,1.6663,-30.5695,-39.8575,26.881237,88.80416,101.9757,NaN,0.0,3.216,,13 / 27,268515,2021-06-14 11:16:40:557
-0.463867,-0.002426,9.718246,-7.6E-5,-6.56E-4,-1.53E-4,1.4023,-30.571,-40.9149,26.881237,88.80416,101.9757,NaN,0.0,3.216,,14 / 27,269017,2021-06-14 11:16:41:059
-0.411194,-0.002426,9.684723,-7.02E-4,-3.1E-5,-5.04E-4,1.9302,-29.3655,-42.0364,26.881237,88.80416,101.9757,NaN,0.0,3.216,,14 / 27,269516,2021-06-14 11:16:41:558
-0.430344,0.016724,9.699097,3.66E-4,-3.1E-5,1.98E-4,1.9302,-29.8462,-40.9439,26.881237,88.80416,101.9757,NaN,0.0,3.216,,14 / 27,270015,2021-06-14 11:16:42:057
-0.420776,-0.021576,9.703873,9.2E-5,7.63E-4,0.00145,2.1942,-30.5679,-41.7908,26.881237,88.80416,101.9757,NaN,0.0,3.216,,14 / 27,270515,2021-06-14 11:16:42:557
-0.382462,0.016724,9.718246,5.34E-4,3.2E-4,-0.001038,2.1942,-29.1244,-39.5004,26.881237,88.80416,101.9757,NaN,0.0,3.216,,14 / 27,271015,2021-06-14 11:16:43:057
-0.425568,-0.021576,9.713455,4.58E-4,6.1E-5,-6.1E-5,1.6663,-29.6066,-41.0294,26.881237,88.80416,101.9757,NaN,0.0,3.216,,14 / 27,271515,2021-06-14 11:16:43:557
-0.396835,-0.012009,9.708664,-2.59E-4,6.71E-4,0.00119,1.9302,-28.8834,-40.0925,26.881237,88.80416,101.9757,NaN,0.0,3.216,,14 / 27,272015,2021-06-14 11:16:44:057
-0.444717,-0.002426,9.708664,3.66E-4,1.53E-4,-2.44E-4,1.6663,-30.0888,-39.9368,26.881237,88.80416,101.9757,NaN,0.0,3.216,,14 / 27,272516,2021-06-14 11:16:44:558
-0.435135,0.002365,9.727814,1.07E-4,1.37E-4,5.65E-4,1.9302,-30.0873,-41.9159,26.881237,88.80416,101.9757,NaN,0.0,3.216,,15 / 27,273015,2021-06-14 11:16:45:057
-0.459076,0.011932,9.723038,-7.93E-4,5.04E-4,6.56E-4,1.1398,-30.3299,-42.0135,26.881237,88.80416,101.9757,NaN,0.0,3.216,,15 / 27,273515,2021-06-14 11:16:45:557
-0.396835,0.040665,9.699097,-7.93E-4,0.001129,0.001633,0.3479,-29.6112,-41.2598,26.881237,88.80416,101.9757,NaN,0.0,3.216,,15 / 27,274016,2021-06-14 11:16:46:058
-0.502182,-0.09819,9.660782,-6.1E-4,-0.001007,0.001724,0.6119,-30.3314,-42.1051,26.881237,88.80416,101.9757,NaN,0.0,3.216,,15 / 27,274515,2021-06-14 11:16:46:557
-0.35852,0.007156,9.646423,4.58E-4,-8.24E-4,-0.00325,0.8759,-30.8121,-41.4734,26.881237,88.80416,101.9757,NaN,0.0,3.216,,15 / 27,275015,2021-06-14 11:16:47:057
-0.444717,-0.040741,9.718246,-1.68E-4,3.2E-4,-1.53E-4,0.8759,-29.3686,-43.7393,26.881237,88.80416,101.9757,NaN,0.0,3.216,,15 / 27,275515,2021-06-14 11:16:47:557
-0.578796,-0.141296,9.785278,-7.02E-4,7.78E-4,0.006241,1.4023,-30.571,-42.4347,26.881237,88.80416,101.9757,NaN,0.0,3.216,,15 / 27,276015,2021-06-14 11:16:48:057
-0.415985,0.074188,9.708664,0.001251,-3.05E-4,-0.002991,1.6663,-30.5695,-40.3625,26.881237,88.80416,101.9757,NaN,0.0,3.216,,15 / 27,276516,2021-06-14 11:16:48:558
-0.387253,0.055038,9.694305,-1.68E-4,-1.22E-4,-0.001129,2.1942,-30.0873,-40.8585,26.881237,88.80416,101.9757,NaN,0.0,3.216,,15 / 27,277015,2021-06-14 11:16:49:057
-0.454285,-0.03595,9.723038,1.5E-5,-5.65E-4,-0.001572,1.9302,-30.5695,-41.33,26.881237,88.80416,101.9757,NaN,0.0,3.216,,15 / 27,277515,2021-06-14 11:16:49:557
-0.439926,0.011932,9.713455,-2.59E-4,3.2E-4,9.16E-4,1.6663,-30.5695,-40.3625,26.881237,88.80416,101.9757,NaN,0.0,3.216,,15 / 27,278016,2021-06-14 11:16:50:058
-0.411194,0.040665,9.727814,-7.6E-5,6.1E-5,1.98E-4,1.4023,-29.8477,-40.0238,26.881237,88.80416,101.9757,NaN,0.0,3.216,,15 / 27,278516,2021-06-14 11:16:50:558
-0.406403,0.002365,9.708664,1.5E-5,0.001038,0.00119,1.9302,-30.5695,-39.8117,26.881237,88.80416,101.9757,NaN,0.0,3.216,,15 / 27,279016,2021-06-14 11:16:51:058
-0.435135,0.007156,9.708664,-0.001053,-3.05E-4,4.73E-4,1.6663,-30.5695,-39.8575,26.881237,88.80416,101.9757,NaN,0.0,3.216,,15 / 27,279515,2021-06-14 11:16:51:557
-0.430344,-0.002426,9.703873,-6.1E-4,3.2E-4,0.001266,1.9302,-29.6066,-39.4653,26.881237,88.80416,101.9757,NaN,0.0,3.216,,15 / 27,280015,2021-06-14 11:16:52:057
-0.415985,0.016724,9.723038,-7.6E-5,1.37E-4,3.1E-5,2.4582,-29.364,-41.4383,26.881237,88.80416,101.9757,NaN,0.0,3.216,,15 / 27,280515,2021-06-14 11:16:52:557
-0.459076,-0.012009,9.732605,-1.68E-4,5.04E-4,0.001801,1.9302,-30.0873,-39.3845,26.881237,88.80416,101.9757,NaN,0.0,3.216,,15 / 27,281016,2021-06-14 11:16:53:058
-0.449509,-0.002426,9.670364,-3.51E-4,-4.73E-4,0.001007,1.9302,-29.3655,-41.0248,26.881237,88.80416,101.9757,NaN,0.0,3.216,,15 / 27,281516,2021-06-14 11:16:53:558
-0.411194,0.035873,9.718246,-5.19E-4,2.29E-4,-5.04E-4,1.9302,-29.1244,-42.0776,26.881237,88.80416,101.9757,NaN,0.0,3.216,,14 / 27,282015,2021-06-14 11:16:54:057
-0.396835,-0.012009,9.737396,-1.68E-4,4.12E-4,4.73E-4,1.9302,-29.3655,-41.0248,26.881237,88.80416,101.9757,NaN,0.0,3.216,,14 / 27,282515,2021-06-14 11:16:54:557
-0.444717,0.011932,9.708664,-4.27E-4,0.001297,7.32E-4,1.9302,-29.1244,-40.0513,26.881237,88.80416,101.9757,NaN,0.0,3.216,,14 / 27,283016,2021-06-14 11:16:55:058
-0.444717,0.026306,9.723038,4.58E-4,-2.14E-4,-9.46E-4,2.4582,-30.5679,-41.745,26.881237,88.80416,101.9757,NaN,0.0,3.216,,14 / 27,283516,2021-06-14 11:16:55:558
-0.463867,-0.002426,9.689514,-1.68E-4,-2.14E-4,0.001984,1.9302,-30.3284,-41.8762,26.881237,88.80416,101.9757,NaN,0.0,3.216,,14 / 27,284016,2021-06-14 11:16:56:058
-0.435135,-0.007217,9.727814,-7.6E-5,3.2E-4,6.56E-4,2.1942,-30.3268,-42.337,26.881237,88.80416,101.9757,NaN,0.0,3.216,,14 / 27,284515,2021-06-14 11:16:56:557
-0.444717,0.040665,9.727814,1.5E-5,1.37E-4,-2.44E-4,1.9302,-30.5695,-43.3548,26.881237,88.80416,101.9757,NaN,0.0,3.216,,14 / 27,285017,2021-06-14 11:16:57:059
-0.478241,0.011932,9.694305,-1.68E-4,9.46E-4,-0.001129,1.6663,-30.8105,-42.3477,26.881237,88.80416,101.9757,NaN,0.0,3.216,,14 / 27,285516,2021-06-14 11:16:57:558
-0.425568,-0.007217,9.723038,1.07E-4,-4.73E-4,-0.001312,1.6663,-30.0888,-43.4814,26.881237,88.80416,101.9757,NaN,0.0,3.216,,14 / 27,286018,2021-06-14 11:16:58:060
-0.454285,-0.03595,9.727814,-3.51E-4,5.04E-4,0.002777,2.1942,-30.3268,-41.8304,26.881237,88.80416,101.9757,NaN,0.0,3.216,,14 / 27,286515,2021-06-14 11:16:58:557
-0.435135,-0.007217,9.746979,-2.59E-4,4.12E-4,2.9E-4,1.9302,-31.0501,-42.7689,26.881237,88.80416,101.9757,NaN,0.0,3.216,,14 / 27,287015,2021-06-14 11:16:59:057
-0.478241,0.016724,9.708664,1.83E-4,7.63E-4,5.65E-4,2.1942,-29.6051,-42.9642,26.881237,88.80416,101.9757,NaN,0.0,3.216,,14 / 27,287515,2021-06-14 11:16:59:557
-0.439926,0.007156,9.708664,-7.02E-4,-3.1E-5,-3.36E-4,1.6663,-30.5695,-41.8823,26.881237,88.80416,101.9757,NaN,0.0,3.216,,14 / 27,288015,2021-06-14 11:17:00:057
-0.411194,0.007156,9.713455,-1.68E-4,2.29E-4,-6.87E-4,1.9302,-30.0873,-41.9159,26.881237,88.80416,101.9757,NaN,0.0,3.216,,14 / 27,288516,2021-06-14 11:17:00:558
-0.430344,-0.0168,9.727814,-3.51E-4,6.1E-5,1.98E-4,1.6663,-29.6066,-41.5359,26.881237,88.80416,101.9757,NaN,0.0,3.216,,14 / 27,289015,2021-06-14 11:17:01:057
-0.406403,0.031097,9.718246,-3.51E-4,-3.97E-4,0.001541,1.9302,-30.809,-41.7953,26.881237,88.80416,101.9757,NaN,0.0,3.216,,14 / 27,289515,2021-06-14 11:17:01:557
-0.468658,0.002365,9.723038,9.2E-5,-2.14E-4,-5.04E-4,1.6663,-30.3284,-40.9103,26.881237,88.80416,101.9757,NaN,0.0,3.216,,14 / 27,290015,2021-06-14 11:17:02:057
-0.47345,-0.050308,9.732605,-1.68E-4,5.95E-4,0.001724,2.1942,-29.8462,-41.9113,26.881237,88.80416,101.9757,NaN,0.0,3.216,,14 / 27,290516,2021-06-14 11:17:02:558
-0.329788,-0.012009,9.675156,-7.6E-5,5.04E-4,0.002686,1.9302,-29.3655,-42.0364,26.881237,88.80416,101.9757,NaN,0.0,3.216,,14 / 27,291015,2021-06-14 11:17:03:057
-0.420776,-0.026367,9.723038,6.26E-4,3.2E-4,-0.002197,1.9302,-28.8834,-43.1305,26.881237,88.80416,101.9757,NaN,0.0,3.216,,14 / 27,291515,2021-06-14 11:17:03:557
-0.511749,0.002365,9.703873,-1.68E-4,0.00148,0.001099,1.6663,-29.8477,-42.5095,26.881237,88.80416,101.9757,NaN,0.0,3.216,,14 / 27,292016,2021-06-14 11:17:04:058
-0.396835,0.026306,9.703873,-4.43E-4,1.53E-4,0.002167,1.9302,-30.0873,-42.4225,26.881237,88.80416,101.9757,NaN,0.0,3.216,,14 / 27,292515,2021-06-14 11:17:04:557
-0.506958,0.045456,9.75177,6.87E-4,0.001465,0.004074,1.9302,-29.8462,-42.9687,26.881237,88.80416,101.9757,NaN,0.0,3.216,,14 / 27,293015,2021-06-14 11:17:05:057
-0.435135,0.059814,9.694305,0.001053,-1.37E-4,-0.005692,1.4023,-30.3299,-41.9678,26.881237,88.80416,101.9757,NaN,0.0,3.216,,14 / 27,293515,2021-06-14 11:17:05:557
-0.502182,-0.012009,9.679932,7.02E-4,-9.31E-4,-0.004257,2.1942,-29.8462,-42.4164,26.881237,88.80416,101.9757,NaN,0.0,3.216,,14 / 26,294016,2021-06-14 11:17:06:058
-0.564423,-0.040741,9.746979,-9.0E-4,0.00235,0.004974,1.6663,-29.3655,-43.602,26.881237,88.80416,101.9757,NaN,0.0,3.216,,14 / 26,294515,2021-06-14 11:17:06:557
-0.411194,-0.026367,9.708664,0.001053,-0.001205,-0.004089,1.9302,-29.1244,-42.0776,26.881237,88.80416,101.9757,NaN,0.0,3.216,,14 / 27,295016,2021-06-14 11:17:07:058
-0.420776,0.064606,9.694305,-1.5E-5,6.56E-4,-0.001785,1.4023,-30.0888,-45.5521,26.881237,88.80416,101.9757,NaN,0.0,3.216,,14 / 27,295515,2021-06-14 11:17:07:557
-0.444717,-0.045517,9.699097,-8.09E-4,3.05E-4,0.002136,1.6663,-30.8105,-42.8543,26.881237,88.80416,101.9757,NaN,0.0,3.216,,14 / 27,296015,2021-06-14 11:17:08:057
-0.449509,0.002365,9.723038,5.19E-4,-3.2E-4,9.2E-5,1.9302,-30.0873,-45.9671,26.881237,88.80416,101.9757,NaN,0.0,3.216,,14 / 27,296516,2021-06-14 11:17:08:558
-0.425568,-0.007217,9.727814,2.44E-4,-2.29E-4,-5.34E-4,1.9302,-30.809,-43.8217,26.881237,88.80416,101.9757,NaN,0.0,3.216,,14 / 27,297015,2021-06-14 11:17:09:057
-0.420776,-0.0168,9.713455,-1.98E-4,3.05E-4,-2.75E-4,1.6663,-29.8477,-43.5211,26.881237,88.80416,101.9757,NaN,0.0,3.216,,14 / 27,297516,2021-06-14 11:17:09:558
-0.420776,-0.031158,9.703873,0.001221,4.6E-5,-4.43E-4,1.4023,-29.3671,-44.1544,26.881237,88.80416,101.9757,NaN,0.0,3.216,,14 / 27,298016,2021-06-14 11:17:10:058
-0.463867,-0.031158,9.689514,1.68E-4,-4.88E-4,-2.75E-4,1.9302,-30.5695,-42.8482,26.881237,88.80416,101.9757,NaN,0.0,3.216,,14 / 27,298515,2021-06-14 11:17:10:557
-0.435135,0.011932,9.708664,-2.75E-4,-7.63E-4,-0.001068,2.1942,-29.6051,-43.4692,26.881237,88.80416,101.9757,NaN,0.0,3.216,,14 / 27,299015,2021-06-14 11:17:11:057
-0.392044,0.011932,9.694305,2.44E-4,1.37E-4,7.02E-4,2.1942,-30.5679,-42.8024,26.881237,88.80416,101.9757,NaN,0.0,3.216,,14 / 27,299515,2021-06-14 11:17:11:557
-0.415985,-0.026367,9.699097,4.27E-4,4.6E-5,-0.001068,1.9302,-29.6066,-43.0099,26.881237,88.80416,101.9757,NaN,0.0,3.216,,14 / 27,300016,2021-06-14 11:17:12:058
-0.415985,0.011932,9.708664,-1.07E-4,-3.2E-4,2.59E-4,1.9302,-30.3284,-42.3828,26.881237,88.80416,101.9757,NaN,0.0,3.216,,14 / 27,300515,2021-06-14 11:17:12:557
-0.47345,-0.007217,9.718246,2.59E-4,3.05E-4,-9.2E-5,1.6663,-30.0888,-42.4683,26.881237,88.80416,101.9757,NaN,0.0,3.216,,14 / 26,301016,2021-06-14 11:17:13:058
-0.449509,-0.0168,9.713455,1.68E-4,-6.71E-4,-8.09E-4,1.6663,-29.6066,-42.5491,26.881237,88.80416,101.9757,NaN,0.0,3.216,,14 / 26,301516,2021-06-14 11:17:13:558
-0.435135,0.021515,9.708664,7.6E-5,4.88E-4,0.001953,1.6663,-28.6438,-42.2028,26.881237,88.80416,101.9757,NaN,0.0,3.216,,14 / 27,302015,2021-06-14 11:17:14:057
-0.444717,-0.012009,9.732605,9.61E-4,-7.63E-4,-9.2E-5,2.4582,-28.8818,-41.5192,26.881237,88.80416,101.9757,NaN,0.0,3.216,,14 / 27,302515,2021-06-14 11:17:14:557
-0.435135,-0.012009,9.708664,3.05E-4,1.53E-4,-8.7E-4,2.1942,-28.8834,-42.0715,26.881237,88.80416,101.9757,NaN,0.0,3.216,,14 / 27,303016,2021-06-14 11:17:15:058
-0.420776,-0.002426,9.703873,-2.29E-4,4.27E-4,-6.1E-5,1.4023,-29.3671,-41.1163,26.881237,88.80416,101.9757,NaN,0.0,3.216,,14 / 27,303515,2021-06-14 11:17:15:557
-0.435135,-0.021576,9.708664,-3.97E-4,5.95E-4,3.81E-4,2.1942,-29.6051,-40.9378,26.881237,88.80416,101.9757,NaN,0.0,3.216,,14 / 27,304015,2021-06-14 11:17:16:057
-0.406403,-0.021576,9.703873,-2.29E-4,8.7E-4,-6.1E-5,1.9302,-30.3284,-41.8762,26.881237,88.80416,101.9757,NaN,0.0,3.216,,14 / 27,304515,2021-06-14 11:17:16:557
-0.411194,-0.007217,9.708664,4.6E-5,6.1E-5,-1.53E-4,2.1942,-29.6051,-42.4576,26.881237,88.80416,101.9757,NaN,0.0,3.216,,14 / 27,305016,2021-06-14 11:17:17:058
-0.415985,0.002365,9.699097,4.6E-5,-1.07E-4,0.001007,1.6663,-30.0888,-43.988,26.881237,88.80416,101.9757,NaN,0.0,3.216,,14 / 27,305515,2021-06-14 11:17:17:557
-0.439926,-0.012009,9.713455,-3.97E-4,-9.16E-4,-5.95E-4,1.9302,-30.5695,-43.3548,26.881237,88.80416,101.9757,NaN,0.0,3.216,,14 / 27,306015,2021-06-14 11:17:18:057
-0.415985,-0.069458,9.675156,-3.05E-4,4.27E-4,2.9E-4,2.4582,-30.0858,-44.8624,26.881237,88.80416,101.9757,NaN,0.0,3.216,,14 / 27,306516,2021-06-14 11:17:18:558
-0.430344,-0.007217,9.694305,3.97E-4,7.78E-4,3.81E-4,1.9302,-30.809,-42.3019,26.881237,88.80416,101.9757,NaN,0.0,3.216,,14 / 27,307016,2021-06-14 11:17:19:058
-0.435135,0.026306,9.732605,1.37E-4,7.6E-5,-9.46E-4,1.1398,-30.0903,-43.573,26.881237,88.80416,101.9757,NaN,0.0,3.216,,14 / 27,307516,2021-06-14 11:17:19:558
-0.492599,-0.0168,9.703873,3.05E-4,5.19E-4,5.65E-4,1.9302,-30.5695,-42.8482,26.881237,88.80416,101.9757,NaN,0.0,3.216,,14 / 27,308015,2021-06-14 11:17:20:057
-0.439926,-0.007217,9.718246,-3.97E-4,5.95E-4,3.1E-5,1.9302,-30.5695,-41.8365,26.881237,88.80416,101.9757,NaN,0.0,3.216,,14 / 27,308515,2021-06-14 11:17:20:557
-0.415985,-0.007217,9.703873,5.8E-4,7.6E-5,4.73E-4,1.4023,-30.8105,-42.3935,26.881237,88.80416,101.9757,NaN,0.0,3.216,,14 / 27,309016,2021-06-14 11:17:21:058
-0.454285,-0.007217,9.699097,2.29E-4,-1.98E-4,6.56E-4,1.9302,-30.5695,-41.8365,26.881237,88.80416,101.9757,NaN,0.0,3.216,,14 / 27,309515,2021-06-14 11:17:21:557
-0.435135,-0.007217,9.713455,4.6E-5,-2.9E-4,1.22E-4,1.6663,-30.0888,-42.4683,26.881237,88.80416,101.9757,NaN,0.0,3.216,,14 / 27,310015,2021-06-14 11:17:22:057
-0.420776,-0.0168,9.723038,6.71E-4,7.78E-4,-4.12E-4,1.1383,-29.3671,-44.2001,26.881237,88.80416,101.9757,NaN,0.0,3.216,,14 / 27,310516,2021-06-14 11:17:22:558
-0.406403,0.021515,9.699097,3.05E-4,-5.49E-4,4.73E-4,1.9302,-29.6066,-41.9968,26.881237,88.80416,101.9757,NaN,0.0,3.216,,15 / 27,311016,2021-06-14 11:17:23:058
-0.363312,0.007156,9.732605,-0.001022,-2.9E-4,-1.53E-4,1.9302,-29.8462,-42.4622,26.881237,88.80416,101.9757,NaN,0.0,3.216,,15 / 27,311515,2021-06-14 11:17:23:557
-0.502182,-0.170029,9.761337,6.56E-4,7.78E-4,-0.002365,2.1942,-29.8462,-42.4164,26.881237,88.80416,101.9757,NaN,0.0,3.216,,15 / 27,312016,2021-06-14 11:17:24:058
-0.439926,0.031097,9.713455,-6.71E-4,-4.58E-4,4.73E-4,1.9302,-30.5695,-42.3431,26.881237,88.80416,101.9757,NaN,0.0,3.216,,15 / 27,312516,2021-06-14 11:17:24:558
-0.516541,-0.045517,9.713455,-3.97E-4,-4.58E-4,0.001801,2.1942,-29.6051,-41.4444,26.881237,88.80416,101.9757,NaN,0.0,3.216,,15 / 27,313015,2021-06-14 11:17:25:057
-0.483017,0.035873,9.746979,4.88E-4,0.001053,0.002243,2.1942,-28.8834,-41.0583,26.881237,88.80416,101.9757,NaN,0.0,3.216,,15 / 27,313515,2021-06-14 11:17:25:557
-0.415985,0.016724,9.694305,6.71E-4,-3.81E-4,3.81E-4,2.1942,-29.1244,-42.5369,26.881237,88.80416,101.9757,NaN,0.0,3.216,,15 / 27,314016,2021-06-14 11:17:26:058
-0.439926,-0.0168,9.684723,4.6E-5,-5.49E-4,5.65E-4,2.1942,-30.3268,-41.8304,26.881237,88.80416,101.9757,NaN,0.0,3.216,,15 / 27,314515,2021-06-14 11:17:26:557
-0.483017,-0.045517,9.699097,-3.97E-4,-3.81E-4,0.001541,1.6663,-29.126,-42.63,26.881237,88.80416,101.9757,NaN,0.0,3.216,,15 / 27,315016,2021-06-14 11:17:27:058
-0.37767,0.055038,9.708664,7.48E-4,-7.32E-4,-0.002808,1.9302,-29.6066,-42.5034,26.881237,88.80416,101.9757,NaN,0.0,3.216,,15 / 27,315516,2021-06-14 11:17:27:558
-0.435135,-0.002426,9.694305,-4.88E-4,-3.81E-4,0.001266,1.6663,-29.8477,-42.5095,26.881237,88.80416,101.9757,NaN,0.0,3.216,,15 / 27,316015,2021-06-14 11:17:28:057
-0.420776,0.007156,9.718246,3.05E-4,8.7E-4,3.81E-4,1.4023,-29.126,-42.6758,26.881237,88.80416,101.9757,NaN,0.0,3.216,,15 / 27,316515,2021-06-14 11:17:28:557
-0.420776,-0.0168,9.713455,-3.05E-4,-6.41E-4,1.98E-4,1.6663,-29.6066,-42.5491,26.881237,88.80416,101.9757,NaN,0.0,3.216,,15 / 27,317016,2021-06-14 11:17:29:058
-0.439926,-0.012009,9.694305,1.22E-4,5.19E-4,4.73E-4,1.6663,-30.3284,-45.4666,26.881237,88.80416,101.9757,NaN,0.0,3.216,,15 / 27,317515,2021-06-14 11:17:29:557
-0.459076,-0.026367,9.699097,-5.8E-4,1.53E-4,0.001892,2.1942,-30.809,-42.2562,26.881237,88.80416,101.9757,NaN,0.0,3.216,,15 / 27,318015,2021-06-14 11:17:30:057
-0.415985,-0.002426,9.713455,3.97E-4,-1.5E-5,-0.001129,1.6663,-31.0501,-42.8146,26.881237,88.80416,101.9757,NaN,0.0,3.216,,15 / 27,318516,2021-06-14 11:17:30:558
-0.444717,0.007156,9.718246,-4.88E-4,-2.9E-4,6.56E-4,1.6663,-30.3284,-42.4286,26.881237,88.80416,101.9757,NaN,0.0,3.216,,15 / 27,319015,2021-06-14 11:17:31:057
-0.425568,0.021515,9.703873,-1.37E-4,9.61E-4,2.9E-4,1.9302,-30.3284,-42.3828,26.881237,88.80416,101.9757,NaN,0.0,3.216,,15 / 27,319515,2021-06-14 11:17:31:557
-0.459076,-0.002426,9.703873,-1.37E-4,8.7E-4,0.001358,1.6663,-30.5695,-42.894,26.881237,88.80416,101.9757,NaN,0.0,3.216,,15 / 27,320015,2021-06-14 11:17:32:057
-0.435135,-0.021576,9.713455,4.6E-5,2.44E-4,0.001099,1.4023,-30.3299,-43.4875,26.881237,88.80416,101.9757,NaN,0.0,3.216,,15 / 27,320515,2021-06-14 11:17:32:557
-0.382462,0.011932,9.660782,-5.8E-4,7.6E-5,0.002167,1.4023,-30.3299,-42.4744,26.881237,88.80416,101.9757,NaN,0.0,3.216,,15 / 27,321015,2021-06-14 11:17:33:057
-0.425568,-0.026367,9.708664,7.48E-4,5.19E-4,-1.53E-4,1.6663,-30.5695,-41.3757,26.881237,88.80416,101.9757,NaN,0.0,3.216,,15 / 27,321516,2021-06-14 11:17:33:558
-0.435135,-0.031158,9.699097,-3.05E-4,-1.5E-5,5.65E-4,1.9302,-28.8834,-42.1173,26.881237,88.80416,101.9757,NaN,0.0,3.216,,15 / 27,322015,2021-06-14 11:17:34:057
-0.439926,-0.026367,9.737396,-8.39E-4,8.7E-4,3.81E-4,1.4023,-29.6082,-42.0883,26.881237,88.80416,101.9757,NaN,0.0,3.216,,15 / 27,322516,2021-06-14 11:17:34:558
-0.444717,0.002365,9.723038,1.37E-4,3.36E-4,8.24E-4,1.9302,-30.3284,-41.8762,26.881237,88.80416,101.9757,NaN,0.0,3.216,,15 / 27,323016,2021-06-14 11:17:35:058
-0.459076,-0.007217,9.737396,-3.97E-4,2.44E-4,9.16E-4,1.9302,-30.0873,-40.3976,26.881237,88.80416,101.9757,NaN,0.0,3.216,,15 / 27,323516,2021-06-14 11:17:35:558
-0.425568,-0.021576,9.713455,4.6E-5,8.7E-4,-5.04E-4,2.7222,-29.8447,-41.3132,26.881237,88.80416,101.9757,NaN,0.0,3.216,,15 / 27,324015,2021-06-14 11:17:36:057
-0.415985,-0.026367,9.694305,-1.37E-4,-4.73E-4,0.00119,1.6663,-30.0888,-40.4434,26.881237,88.80416,101.9757,NaN,0.0,3.216,,15 / 27,324516,2021-06-14 11:17:36:558
-0.468658,-0.021576,9.713455,4.6E-5,-0.001175,-3.36E-4,2.1942,-29.8462,-41.9113,26.881237,88.80416,101.9757,NaN,0.0,3.216,,15 / 27,325015,2021-06-14 11:17:37:057
-0.444717,-0.026367,9.694305,3.05E-4,-0.001343,-0.001038,1.6663,-29.8477,-41.4963,26.881237,88.80416,101.9757,NaN,0.0,3.216,,15 / 27,325516,2021-06-14 11:17:37:558
-0.420776,0.021515,9.694305,-3.2E-4,5.19E-4,-0.002365,2.1942,-29.1244,-43.0435,26.881237,88.80416,101.9757,NaN,0.0,3.216,,15 / 27,326015,2021-06-14 11:17:38:057
-0.411194,0.040665,9.723038,-0.00174,0.001587,0.004639,1.9302,-30.0873,-41.9159,26.881237,88.80416,101.9757,NaN,0.0,3.216,,15 / 27,326515,2021-06-14 11:17:38:557
-0.449509,-0.059891,9.708664,-1.37E-4,-1.98E-4,8.24E-4,1.9302,-30.0873,-41.9159,26.881237,88.80416,101.9757,NaN,0.0,3.216,,14 / 27,327015,2021-06-14 11:17:39:057
-0.411194,0.002365,9.723038,-3.97E-4,-9.92E-4,-0.001312,2.1942,-30.5679,-41.7908,26.881237,88.80416,101.9757,NaN,0.0,3.216,,14 / 27,327516,2021-06-14 11:17:39:558
-0.559631,-0.102982,9.703873,3.05E-4,-7.32E-4,-0.006454,2.1942,-30.3268,-41.8304,26.881237,88.80416,101.9757,NaN,0.0,3.216,,14 / 27,328015,2021-06-14 11:17:40:057
-0.511749,-0.074249,9.703873,-0.001205,0.001938,0.00705,2.1942,-30.0873,-41.3635,26.881237,88.80416,101.9757,NaN,0.0,3.216,,14 / 27,328515,2021-06-14 11:17:40:557
-0.401627,-0.012009,9.718246,4.88E-4,-0.001709,-0.00592,1.6663,-31.2912,-42.2684,26.881237,88.80416,101.9757,NaN,0.0,3.216,,14 / 27,329016,2021-06-14 11:17:41:058
-0.353729,0.064606,9.694305,-1.37E-4,0.001404,0.001709,1.6663,-30.3284,-42.9352,26.881237,88.80416,101.9757,NaN,0.0,3.216,,14 / 27,329516,2021-06-14 11:17:41:558
-0.430344,-0.059891,9.675156,0.001373,-6.41E-4,-0.004059,2.1942,-30.3268,-43.8553,26.881237,88.80416,101.9757,NaN,0.0,3.216,,14 / 27,330015,2021-06-14 11:17:42:057
-0.435135,-0.012009,9.718246,-1.37E-4,-9.92E-4,-0.001038,1.9302,-29.8462,-42.4622,26.881237,88.80416,101.9757,NaN,0.0,3.216,,14 / 27,330516,2021-06-14 11:17:42:558
-0.392044,-0.026367,9.713455,-3.05E-4,2.44E-4,-5.04E-4,1.9302,-30.3284,-41.3696,26.881237,88.80416,101.9757,NaN,0.0,3.216,,13 / 27,331015,2021-06-14 11:17:43:057
-0.411194,-0.026367,9.689514,3.05E-4,-8.24E-4,1.98E-4,1.6663,-30.0888,-42.9749,26.881237,88.80416,101.9757,NaN,0.0,3.216,,13 / 27,331515,2021-06-14 11:17:43:557
-0.435135,0.035873,9.699097,-4.88E-4,0.001053,0.00473,2.7222,-32.0099,-40.9515,26.881237,88.80416,101.9757,NaN,0.0,3.216,,13 / 27,332016,2021-06-14 11:17:44:058
-0.478241,0.011932,9.689514,-9.31E-4,7.78E-4,8.24E-4,2.1942,-30.809,-42.2562,26.881237,88.80416,101.9757,NaN,0.0,3.216,,13 / 27,332515,2021-06-14 11:17:44:557
-0.444717,0.016724,9.713455,1.37E-4,5.19E-4,-3.36E-4,2.4582,-29.8447,-42.3706,26.881237,88.80416,101.9757,NaN,0.0,3.216,,14 / 27,333015,2021-06-14 11:17:45:057
-0.392044,0.040665,9.718246,1.37E-4,4.27E-4,0.001007,2.1942,-30.809,-43.2693,26.881237,88.80416,101.9757,NaN,0.0,3.216,,14 / 27,333515,2021-06-14 11:17:45:557
-0.439926,-0.012009,9.699097,-1.37E-4,1.53E-4,-7.78E-4,2.1942,-30.5679,-41.2842,26.881237,88.80416,101.9757,NaN,0.0,3.216,,14 / 27,334015,2021-06-14 11:17:46:057
-0.435135,0.021515,9.742188,-3.97E-4,-1.98E-4,-0.001312,1.6663,-30.8105,-42.8543,26.881237,88.80416,101.9757,NaN,0.0,3.216,,14 / 27,334515,2021-06-14 11:17:46:557
-0.454285,0.011932,9.75177,8.39E-4,-1.98E-4,-1.53E-4,1.9302,-29.3655,-42.543,26.881237,88.80416,101.9757,NaN,0.0,3.216,,14 / 27,335015,2021-06-14 11:17:47:057
-0.411194,0.026306,9.718246,3.97E-4,-4.58E-4,-0.001755,1.9302,-29.6066,-41.4902,26.881237,88.80416,101.9757,NaN,0.0,3.216,,14 / 27,335515,2021-06-14 11:17:47:557
-0.420776,-0.007217,9.718246,-8.39E-4,-3.66E-4,1.98E-4,2.1942,-30.5679,-40.271,26.881237,88.80416,101.9757,NaN,0.0,3.216,,14 / 27,336015,2021-06-14 11:17:48:057
-0.430344,0.021515,9.737396,-1.37E-4,-2.9E-4,3.81E-4,2.1942,-29.8462,-41.4047,26.881237,88.80416,101.9757,NaN,0.0,3.216,,14 / 27,336515,2021-06-14 11:17:48:557
-0.449509,0.007156,9.727814,4.88E-4,2.44E-4,3.81E-4,2.1942,-30.3268,-40.8173,26.881237,88.80416,101.9757,NaN,0.0,3.216,,15 / 27,337016,2021-06-14 11:17:49:058
-0.444717,0.007156,9.727814,1.53E-4,-0.001221,-1.53E-4,1.9302,-30.0873,-40.9042,26.881237,88.80416,101.9757,NaN,0.0,3.216,,15 / 27,337515,2021-06-14 11:17:49:557
-0.444717,0.011932,9.746979,-3.66E-4,-5.95E-4,2.9E-4,1.6663,-29.126,-41.1102,26.881237,88.80416,101.9757,NaN,0.0,3.216,,15 / 27,338015,2021-06-14 11:17:50:057
-0.439926,0.002365,9.727814,-1.07E-4,-6.87E-4,-8.7E-4,1.9302,-29.3655,-40.5182,26.881237,88.80416,101.9757,NaN,0.0,3.216,,15 / 27,338516,2021-06-14 11:17:50:558
-0.463867,-0.026367,9.737396,7.6E-5,-3.36E-4,-6.1E-5,1.4023,-29.3671,-41.6229,26.881237,88.80416,101.9757,NaN,0.0,3.216,,14 / 27,339015,2021-06-14 11:17:51:057
-0.459076,0.007156,9.699097,4.27E-4,1.07E-4,-7.78E-4,2.1942,-29.6051,-42.4576,26.881237,88.80416,101.9757,NaN,0.0,3.216,,14 / 27,339515,2021-06-14 11:17:51:557
-0.449509,0.002365,9.718246,-1.98E-4,-6.87E-4,-2.44E-4,2.1942,-29.364,-41.4841,26.881237,88.80416,101.9757,NaN,0.0,3.216,,15 / 27,340016,2021-06-14 11:17:52:058
-0.516541,-0.055099,9.679932,-0.001083,4.58E-4,0.004379,1.6663,-30.0888,-42.4683,26.881237,88.80416,101.9757,NaN,0.0,3.216,,15 / 27,340515,2021-06-14 11:17:52:557
-0.435135,0.026306,9.699097,2.59E-4,-4.27E-4,-1.53E-4,1.9302,-30.3284,-41.3696,26.881237,88.80416,101.9757,NaN,0.0,3.216,,15 / 27,341016,2021-06-14 11:17:53:058
-0.435135,-0.03595,9.703873,-1.98E-4,1.5E-5,-0.001495,1.4023,-29.3671,-42.6346,26.881237,88.80416,101.9757,NaN,0.0,3.216,,15 / 27,341515,2021-06-14 11:17:53:557
-0.420776,0.064606,9.699097,-4.58E-4,3.81E-4,5.65E-4,2.4582,-30.3268,-41.7847,26.881237,88.80416,101.9757,NaN,0.0,3.216,,14 / 27,342016,2021-06-14 11:17:54:058
-0.449509,0.002365,9.679932,1.68E-4,4.58E-4,6.41E-4,1.4023,-29.6082,-41.5817,26.881237,88.80416,101.9757,NaN,0.0,3.216,,14 / 27,342516,2021-06-14 11:17:54:558
-0.425568,0.035873,9.708664,-4.58E-4,2.9E-4,0.001617,1.9302,-30.5695,-41.8365,26.881237,88.80416,101.9757,NaN,0.0,3.216,,15 / 27,343016,2021-06-14 11:17:55:058
-0.463867,-0.002426,9.679932,-1.98E-4,-6.87E-4,0.002167,1.6663,-29.126,-42.1234,26.881237,88.80416,101.9757,NaN,0.0,3.216,,15 / 27,343515,2021-06-14 11:17:55:557
-0.454285,-0.002426,9.694305,1.68E-4,1.07E-4,-4.27E-4,2.1942,-30.5679,-45.3339,26.881237,88.80416,101.9757,NaN,0.0,3.216,,14 / 27,344015,2021-06-14 11:17:56:057
-0.47345,0.002365,9.708664,-9.0E-4,2.9E-4,-1.53E-4,1.6663,-30.0888,-41.9617,26.881237,88.80416,101.9757,NaN,0.0,3.216,,14 / 27,344515,2021-06-14 11:17:56:557
-0.425568,-0.002426,9.694305,-8.09E-4,1.5E-5,-1.53E-4,1.4038,-31.2927,-43.3258,26.881237,88.80416,101.9757,NaN,0.0,3.216,,14 / 27,345015,2021-06-14 11:17:57:057
-0.439926,-0.0168,9.699097,-1.98E-4,-7.78E-4,-6.1E-5,1.9302,-31.5308,-43.7012,26.881237,88.80416,101.9757,NaN,0.0,3.216,,14 / 27,345516,2021-06-14 11:17:57:558
-0.454285,-0.007217,9.732605,-2.75E-4,-7.6E-5,-1.53E-4,1.4038,-31.0516,-41.3406,26.881237,88.80416,101.9757,NaN,0.0,3.216,,15 / 27,346015,2021-06-14 11:17:58:057
-0.439926,0.002365,9.718246,2.44E-4,1.07E-4,6.41E-4,1.9302,-29.6066,-43.0099,26.881237,88.80416,101.9757,NaN,0.0,3.216,,15 / 27,346516,2021-06-14 11:17:58:558
-0.425568,0.002365,9.703873,-1.07E-4,-5.19E-4,-1.53E-4,1.9302,-30.0873,-42.4225,26.881237,88.80416,101.9757,NaN,0.0,3.216,,15 / 27,347015,2021-06-14 11:17:59:057
-0.454285,0.007156,9.718246,7.6E-5,2.9E-4,-5.95E-4,1.9302,-30.809,-42.3019,26.881237,88.80416,101.9757,NaN,0.0,3.216,,15 / 27,347515,2021-06-14 11:17:59:557
-0.430344,-0.012009,9.713455,5.19E-4,-2.44E-4,1.07E-4,2.1942,-30.5679,-42.2958,26.881237,88.80416,101.9757,NaN,0.0,3.216,,15 / 27,348016,2021-06-14 11:18:00:058
-0.415985,0.002365,9.732605,-3.66E-4,5.49E-4,5.65E-4,1.9302,-30.5695,-40.8234,26.881237,88.80416,101.9757,NaN,0.0,3.216,,15 / 27,348515,2021-06-14 11:18:00:557
-0.420776,-0.002426,9.713455,-2.75E-4,1.98E-4,-4.27E-4,2.4582,-31.2897,-41.6244,26.881237,88.80416,101.9757,NaN,0.0,3.216,,15 / 27,349015,2021-06-14 11:18:01:057
-0.439926,-0.002426,9.689514,-5.49E-4,-7.6E-5,-6.1E-5,1.9302,-29.3655,-42.0364,26.881237,88.80416,101.9757,NaN,0.0,3.216,,15 / 27,349515,2021-06-14 11:18:01:557
-0.459076,-0.021576,9.723038,-7.32E-4,2.9E-4,3.1E-5,1.9302,-30.5695,-41.8365,26.881237,88.80416,101.9757,NaN,0.0,3.216,,15 / 27,350015,2021-06-14 11:18:02:057
-0.449509,0.007156,9.703873,-1.5E-5,1.98E-4,1.98E-4,1.6663,-31.0501,-40.7898,26.881237,88.80416,101.9757,NaN,0.0,3.216,,15 / 27,350515,2021-06-14 11:18:02:557
-0.425568,0.007156,9.723038,3.36E-4,3.81E-4,1.07E-4,1.9302,-28.8834,-41.6107,26.881237,88.80416,101.9757,NaN,0.0,3.216,,15 / 27,351015,2021-06-14 11:18:03:057
-0.459076,-0.002426,9.713455,-5.49E-4,-5.19E-4,-4.27E-4,1.6663,-29.8477,-42.0029,26.881237,88.80416,101.9757,NaN,0.0,3.216,,15 / 27,351516,2021-06-14 11:18:03:558
-0.449509,-0.002426,9.727814,-5.49E-4,-0.001404,-1.53E-4,2.1942,-29.364,-42.4973,26.881237,88.80416,101.9757,NaN,0.0,3.216,,15 / 27,352015,2021-06-14 11:18:04:057
-0.439926,0.016724,9.699097,7.6E-5,-3.36E-4,3.1E-5,2.1942,-28.4027,-41.1392,26.881237,88.80416,101.9757,NaN,0.0,3.216,,15 / 27,352515,2021-06-14 11:18:04:557
-0.425568,0.002365,9.699097,1.68E-4,1.5E-5,-5.04E-4,1.9302,-29.6066,-40.9836,26.881237,88.80416,101.9757,NaN,0.0,3.216,,15 / 27,353016,2021-06-14 11:18:05:058
-0.435135,-0.002426,9.703873,7.6E-5,-1.53E-4,-6.1E-5,1.9302,-30.0873,-40.9042,26.881237,88.80416,101.9757,NaN,0.0,3.216,,15 / 27,353516,2021-06-14 11:18:05:558
-0.454285,0.007156,9.694305,4.27E-4,-3.36E-4,-3.36E-4,1.4023,-29.8477,-43.5669,26.881237,88.80416,101.9757,NaN,0.0,3.216,,15 / 27,354016,2021-06-14 11:18:06:058
-0.449509,-0.002426,9.713455,2.44E-4,-5.19E-4,3.1E-5,1.6663,-29.6066,-42.0425,26.881237,88.80416,101.9757,NaN,0.0,3.216,,15 / 27,354516,2021-06-14 11:18:06:558
-0.425568,0.007156,9.713455,7.6E-5,-5.19E-4,1.98E-4,1.9302,-29.6066,-43.0099,26.881237,88.80416,101.9757,NaN,0.0,3.216,,16 / 27,355015,2021-06-14 11:18:07:057
-0.463867,-0.007217,9.694305,-1.98E-4,-3.36E-4,1.07E-4,2.4582,-30.3268,-41.7847,26.881237,88.80416,101.9757,NaN,0.0,3.216,,16 / 27,355515,2021-06-14 11:18:07:557
-0.454285,0.002365,9.699097,-2.9E-4,-3.36E-4,6.41E-4,2.1942,-30.809,-42.7628,26.881237,88.80416,101.9757,NaN,0.0,3.216,,16 / 27,356016,2021-06-14 11:18:08:058
-0.463867,-0.0168,9.708664,3.36E-4,1.5E-5,3.1E-5,1.4023,-29.6082,-42.0883,26.881237,88.80416,101.9757,NaN,0.0,3.216,,16 / 27,356515,2021-06-14 11:18:08:557
-0.435135,0.002365,9.713455,-3.66E-4,-7.6E-5,1.07E-4,1.6663,-29.6066,-43.0557,26.881237,88.80416,101.9757,NaN,0.0,3.216,,16 / 27,357016,2021-06-14 11:18:09:058
-0.420776,-0.0168,9.708664,-1.98E-4,3.81E-4,1.07E-4,1.9302,-29.3655,-43.0496,26.881237,88.80416,101.9757,NaN,0.0,3.216,,16 / 27,357515,2021-06-14 11:18:09:557
-0.415985,0.011932,9.694305,-1.5E-5,-1.53E-4,2.9E-4,1.6663,-31.0501,-42.308,26.881237,88.80416,101.9757,NaN,0.0,3.216,,17 / 27,358015,2021-06-14 11:18:10:057
-0.439926,-0.007217,9.708664,7.02E-4,-2.44E-4,-3.36E-4,1.9302,-30.809,-41.7953,26.881237,88.80416,101.9757,NaN,0.0,3.216,,17 / 27,358516,2021-06-14 11:18:10:558
-0.392044,-0.007217,9.689514,0.001053,4.73E-4,-2.44E-4,1.9302,-30.809,-42.8085,26.881237,88.80416,101.9757,NaN,0.0,3.216,,16 / 27,359016,2021-06-14 11:18:11:058
-0.439926,0.011932,9.689514,-1.98E-4,-8.7E-4,-4.27E-4,1.6663,-30.0888,-42.9749,26.881237,88.80416,101.9757,NaN,0.0,3.216,,16 / 27,359515,2021-06-14 11:18:11:557
-0.430344,-0.012009,9.694305,0.001221,2.9E-4,7.32E-4,2.1942,-31.0501,-43.2281,26.881237,88.80416,101.9757,NaN,0.0,3.216,,16 / 27,360016,2021-06-14 11:18:12:058
-0.435135,0.002365,9.689514,5.19E-4,-8.7E-4,-2.44E-4,1.9302,-30.0873,-41.9159,26.881237,88.80416,101.9757,NaN,0.0,3.216,,16 / 27,360516,2021-06-14 11:18:12:558
-0.449509,-0.007217,9.723038,1.68E-4,1.07E-4,-6.1E-5,2.4582,-29.8447,-42.3706,26.881237,88.80416,101.9757,NaN,0.0,3.216,,16 / 27,361015,2021-06-14 11:18:13:057
-0.411194,-0.026367,9.708664,7.6E-5,4.58E-4,3.81E-4,1.9302,-30.3284,-42.8894,26.881237,88.80416,101.9757,NaN,0.0,3.216,,16 / 27,361515,2021-06-14 11:18:13:557
-0.411194,-0.031158,9.703873,5.19E-4,2.9E-4,1.98E-4,1.6663,-29.6066,-43.0557,26.881237,88.80416,101.9757,NaN,0.0,3.216,,16 / 27,362015,2021-06-14 11:18:14:057
-0.396835,0.011932,9.675156,4.27E-4,1.07E-4,7.32E-4,1.4023,-30.3299,-42.4744,26.881237,88.80416,101.9757,NaN,0.0,3.216,,16 / 27,362515,2021-06-14 11:18:14:557
-0.406403,0.016724,9.732605,9.61E-4,1.07E-4,-8.7E-4,1.9302,-29.6066,-43.0099,26.881237,88.80416,101.9757,NaN,0.0,3.216,,16 / 27,363016,2021-06-14 11:18:15:058
-0.444717,0.026306,9.718246,4.27E-4,-7.6E-5,8.24E-4,1.9302,-29.8462,-41.4505,26.881237,88.80416,101.9757,NaN,0.0,3.216,,16 / 27,363515,2021-06-14 11:18:15:557
-0.439926,0.007156,9.708664,-1.98E-4,-5.95E-4,4.73E-4,1.6663,-28.8849,-43.6813,26.881237,88.80416,101.9757,NaN,0.0,3.216,,16 / 27,364015,2021-06-14 11:18:16:057
-0.439926,0.007156,9.703873,5.19E-4,-7.6E-5,-5.95E-4,1.9302,-29.6066,-41.9968,26.881237,88.80416,101.9757,NaN,0.0,3.216,,16 / 27,364515,2021-06-14 11:18:16:557
-0.425568,-0.012009,9.699097,3.36E-4,4.58E-4,3.81E-4,2.4582,-29.1229,-41.4795,26.881237,88.80416,101.9757,NaN,0.0,3.216,,16 / 27,365015,2021-06-14 11:18:17:057
-0.430344,-0.0168,9.727814,7.6E-5,1.5E-5,9.16E-4,2.1942,-30.0873,-40.8585,26.881237,88.80416,101.9757,NaN,0.0,3.216,,16 / 27,365515,2021-06-14 11:18:17:557
-0.454285,0.016724,9.723038,6.1E-4,-7.6E-5,3.1E-5,2.4582,-29.6051,-43.4235,26.881237,88.80416,101.9757,NaN,0.0,3.216,,16 / 27,366015,2021-06-14 11:18:18:057
-0.430344,-0.012009,9.737396,3.36E-4,-0.001221,-9.61E-4,1.9302,-29.8462,-42.9687,26.881237,88.80416,101.9757,NaN,0.0,3.216,,16 / 27,366516,2021-06-14 11:18:18:558
-0.415985,0.002365,9.732605,5.19E-4,-7.6E-5,-6.87E-4,1.6663,-29.8477,-43.0145,26.881237,88.80416,101.9757,NaN,0.0,3.216,,16 / 27,367016,2021-06-14 11:18:19:058
-0.444717,0.007156,9.708664,-3.66E-4,3.81E-4,-6.1E-5,1.4023,-30.0888,-41.5024,26.881237,88.80416,101.9757,NaN,0.0,3.216,,16 / 27,367515,2021-06-14 11:18:19:557
-0.454285,-0.012009,9.718246,3.36E-4,-6.1E-5,4.73E-4,1.4023,-29.126,-44.194,26.881237,88.80416,101.9757,NaN,0.0,3.216,,16 / 27,368015,2021-06-14 11:18:20:057
-0.430344,0.002365,9.727814,-1.5E-5,-8.7E-4,5.65E-4,1.9302,-30.3284,-43.9011,26.881237,88.80416,101.9757,NaN,0.0,3.216,,16 / 27,368515,2021-06-14 11:18:20:557
-0.430344,0.002365,9.694305,5.19E-4,-5.19E-4,1.07E-4,2.1942,-30.5679,-42.2958,26.881237,88.80416,101.9757,NaN,0.0,3.216,,16 / 27,369015,2021-06-14 11:18:21:057
-0.444717,-0.007217,9.694305,7.6E-5,-4.27E-4,-4.27E-4,1.9302,-29.3655,-43.5562,26.881237,88.80416,101.9757,NaN,0.0,3.216,,16 / 27,369515,2021-06-14 11:18:21:557
-0.449509,-0.0168,9.694305,-4.58E-4,4.58E-4,-2.44E-4,2.1942,-29.8462,-42.923,26.881237,88.80416,101.9757,NaN,0.0,3.216,,16 / 27,370015,2021-06-14 11:18:22:057
-0.430344,-0.007217,9.732605,2.59E-4,-6.1E-5,3.1E-5,1.4023,-29.6082,-42.5949,26.881237,88.80416,101.9757,NaN,0.0,3.216,,16 / 27,370515,2021-06-14 11:18:22:557
-0.430344,0.007156,9.713455,-1.5E-5,-2.44E-4,3.1E-5,1.1398,-31.0516,-41.893,26.881237,88.80416,101.9757,NaN,0.0,3.216,,16 / 27,371015,2021-06-14 11:18:23:057
-0.430344,-0.002426,9.708664,-4.58E-4,-7.6E-5,-1.53E-4,1.1398,-30.3299,-43.0267,26.881237,88.80416,101.9757,NaN,0.0,3.216,,16 / 27,371516,2021-06-14 11:18:23:558
-0.430344,-0.002426,9.703873,7.6E-5,-4.27E-4,7.32E-4,1.1398,-30.571,-42.9871,26.881237,88.80416,101.9757,NaN,0.0,3.216,,17 / 27,372015,2021-06-14 11:18:24:057
-0.439926,-0.002426,9.703873,5.19E-4,-6.1E-4,-2.44E-4,1.4023,-30.3299,-42.981,26.881237,88.80416,101.9757,NaN,0.0,3.216,,17 / 27,372515,2021-06-14 11:18:24:557
-0.435135,-0.026367,9.699097,6.1E-4,2.9E-4,-5.04E-4,1.6663,-30.0888,-43.4814,26.881237,88.80416,101.9757,NaN,0.0,3.216,,17 / 26,373016,2021-06-14 11:18:25:058
-0.425568,-0.0168,9.708664,-1.5E-5,1.07E-4,1.07E-4,1.6663,-29.6066,-42.0425,26.881237,88.80416,101.9757,NaN,0.0,3.216,,17 / 26,373516,2021-06-14 11:18:25:558
-0.420776,-0.012009,9.713455,7.02E-4,-2.44E-4,-1.53E-4,2.1942,-30.3268,-43.3487,26.881237,88.80416,101.9757,NaN,0.0,3.216,,17 / 27,374015,2021-06-14 11:18:26:057
-0.439926,0.011932,9.718246,-4.58E-4,-2.44E-4,-3.36E-4,1.9302,-29.3655,-42.543,26.881237,88.80416,101.9757,NaN,0.0,3.216,,17 / 27,374515,2021-06-14 11:18:26:557
-0.425568,0.016724,9.694305,1.68E-4,-1.53E-4,-6.1E-5,1.6663,-30.5695,-42.3889,26.881237,88.80416,101.9757,NaN,0.0,3.216,,17 / 27,375015,2021-06-14 11:18:27:057
-0.444717,0.026306,9.708664,6.1E-4,-5.19E-4,4.73E-4,1.9302,-30.0873,-40.9042,26.881237,88.80416,101.9757,NaN,0.0,3.216,,17 / 27,375516,2021-06-14 11:18:27:558
