ACCELEROMETER X (m/s²),ACCELEROMETER Y (m/s²),ACCELEROMETER Z (m/s²),GYROSCOPE X (rad/s),GYROSCOPE Y (rad/s),GYROSCOPE Z (rad/s),MAGNETIC FIELD X (μT),MAGNETIC FIELD Y (μT),MAGNETIC FIELD Z (μT),LOCATION Latitude : ,LOCATION Longitude : ,LOCATION Altitude ( m),LOCATION Altitude-google ( m),LOCATION Speed ( Kmh),LOCATION Accuracy ( m),LOCATION ORIENTATION (°),Satellites in range,Time since start in ms ,YYYY-MO-DD HH-MI-SS_SSS
-1.397613,2.813156,12.959991,-0.524689,-0.574692,0.097824,-17.5919,-33.0292,-36.7294,26.881195,88.8045,125.5212,NaN,0.0,25.728,,0 / 38,2512,2021-06-14 12:00:39:014
-0.875671,2.166718,7.582611,0.570328,0.375885,0.629837,-25.2441,-32.3288,-29.068,26.881195,88.8045,125.5212,NaN,0.0,25.728,,9 / 23,3013,2021-06-14 12:00:39:515
0.225662,3.167496,9.780487,0.477814,1.269196,1.311874,-32.6324,-18.1488,-35.7605,26.881195,88.8045,125.5212,NaN,0.0,25.728,,9 / 23,3512,2021-06-14 12:00:40:014
-6.77977,4.728516,8.454102,-0.367386,1.680039,0.246872,-2.5574,-6.9946,-62.7548,26.881195,88.8045,125.5212,NaN,0.0,25.728,,9 / 23,4012,2021-06-14 12:00:40:514
-1.057632,4.96315,8.094971,0.578308,0.371704,1.062515,-2.298,15.1474,-59.3155,26.881195,88.8045,125.5212,NaN,0.0,25.728,,0 / 31,4515,2021-06-14 12:00:41:017
-1.392822,5.149887,7.917801,0.020386,0.648499,0.70192,10.8948,13.4995,-58.7646,26.881195,88.8045,125.5212,NaN,0.0,25.728,,0 / 31,5012,2021-06-14 12:00:41:514
-3.308182,4.876953,7.659226,0.016739,0.590088,0.751541,30.4184,8.017,-50.9018,26.881195,88.8045,125.5212,NaN,0.0,25.728,,14 / 31,5513,2021-06-14 12:00:42:015
-3.600265,3.488312,7.798096,-0.533646,0.685791,1.610596,38.8641,-8.8058,-40.0391,26.881195,88.8045,125.5212,NaN,0.0,25.728,,14 / 31,6012,2021-06-14 12:00:42:514
-0.468658,-0.940948,8.60733,-0.808228,3.379669,3.696823,31.7429,-26.8768,-37.2528,26.881195,88.8045,125.5212,NaN,0.0,25.728,,16 / 31,6512,2021-06-14 12:00:43:014
0.517761,-4.168335,10.594528,-0.302216,0.071564,1.261719,16.7023,-11.0336,-58.2153,26.881195,88.8045,125.5212,NaN,0.0,25.728,,16 / 31,7013,2021-06-14 12:00:43:515
-4.069534,-4.594513,4.0775,-1.706238,0.428177,1.015915,25.6729,-12.9333,-53.8025,26.881195,88.8045,125.5212,NaN,0.0,25.728,,17 / 31,7512,2021-06-14 12:00:44:014
-4.792587,-7.103622,3.115036,0.181137,-0.214447,-0.136627,25.9323,15.4663,-49.8886,26.881195,88.8045,125.5212,NaN,0.0,25.728,,17 / 31,8013,2021-06-14 12:00:44:515
-0.281906,-9.354187,-1.333389,-0.350693,-0.581696,0.701035,19.0704,34.4605,-32.9926,26.881195,88.8045,125.5212,NaN,0.0,25.728,,18 / 31,8513,2021-06-14 12:00:45:015
3.041245,-9.560074,0.007355,-1.236633,-0.78952,-0.166977,3.7674,32.9742,-45.0317,26.881195,88.8045,125.5212,NaN,0.0,25.728,,18 / 31,9012,2021-06-14 12:00:45:514
6.306931,-13.074768,-2.525711,1.017914,3.177445,2.356552,27.2476,35.9268,-26.7471,26.881195,88.8045,125.5212,NaN,0.0,25.728,,18 / 31,9513,2021-06-14 12:00:46:015
0.105957,-11.829788,1.372055,-1.369797,2.559937,2.104248,30.5313,36.6821,0.1495,26.881195,88.8045,125.5212,NaN,0.0,25.728,,18 / 31,10012,2021-06-14 12:00:46:514
0.067642,-9.354187,-2.061233,-1.188614,1.362503,0.349854,22.6151,40.7516,9.2285,26.881195,88.8045,125.5212,NaN,0.0,25.728,,18 / 31,10513,2021-06-14 12:00:47:015
0.613525,-9.258408,-0.040527,0.394638,2.29158,1.113831,17.0761,37.1262,22.0306,26.881195,88.8045,125.5212,NaN,0.0,25.728,,18 / 31,11012,2021-06-14 12:00:47:514
2.15538,-8.583252,-3.454651,-0.638672,3.147614,0.073059,-6.9321,37.059,29.4983,26.881195,88.8045,125.5212,NaN,0.0,25.728,,18 / 31,11513,2021-06-14 12:00:48:015
3.864853,-20.008377,7.343201,1.637894,1.638306,1.238007,-38.0646,34.3262,0.2243,26.881195,88.8045,125.5212,NaN,0.0,25.728,,18 / 31,12012,2021-06-14 12:00:48:514
-0.933136,-9.612747,-3.41156,-0.821014,1.545456,-0.715866,-20.9152,37.5015,-31.7429,26.881195,88.8045,125.5212,NaN,0.0,25.728,,18 / 31,12513,2021-06-14 12:00:49:015
-1.071991,-10.043716,-0.102768,-0.271149,-0.754105,-0.569473,-35.6888,30.0003,-17.8787,26.881195,88.8045,125.5212,NaN,0.0,25.728,,18 / 31,13013,2021-06-14 12:00:49:515
2.236786,-6.921676,-0.279938,-0.022415,-3.096527,0.308136,-22.2351,39.6637,-25.2457,26.881195,88.8045,125.5212,NaN,0.0,25.728,,18 / 32,13512,2021-06-14 12:00:50:014
4.142578,-8.06131,-1.735611,0.927002,-0.852188,-1.848587,-26.9836,33.3939,8.3878,26.881195,88.8045,125.5212,NaN,0.0,25.728,,18 / 32,14013,2021-06-14 12:00:50:515
2.753937,-14.52565,-4.718796,-0.912888,6.302933,0.511246,-25.9262,24.9725,-23.9441,26.881195,88.8045,125.5212,NaN,0.0,25.728,,19 / 32,14512,2021-06-14 12:00:51:014
1.039688,-9.967102,0.797455,-0.185226,1.381409,-0.832153,-6.9321,30.8014,-37.8052,26.881195,88.8045,125.5212,NaN,0.0,25.728,,19 / 32,15013,2021-06-14 12:00:51:515
-1.713638,-9.311081,2.257904,-0.451263,0.224533,0.420151,2.8305,31.3095,-34.6695,26.881195,88.8045,125.5212,NaN,0.0,25.728,,19 / 32,15513,2021-06-14 12:00:52:015
2.42833,-9.493042,-1.433945,-1.203613,1.24585,0.238358,-0.6012,37.558,-32.7652,26.881195,88.8045,125.5212,NaN,0.0,25.728,,19 / 32,16012,2021-06-14 12:00:52:514
3.390793,-11.020538,3.996109,0.768097,0.829239,1.6548,27.3651,35.4691,-25.5142,26.881195,88.8045,125.5212,NaN,0.0,25.728,,19 / 32,16512,2021-06-14 12:00:53:014
2.212845,-4.058212,-1.280716,0.231476,0.93071,0.166534,33.9615,34.285,-1.8906,26.881195,88.8045,125.5212,NaN,0.0,25.728,,19 / 32,17012,2021-06-14 12:00:53:514
-2.259521,-9.756409,3.790207,-0.499557,3.54718,0.597885,27.6291,37.6358,4.0405,26.881195,88.8045,125.5212,NaN,0.0,25.728,,19 / 32,17512,2021-06-14 12:00:54:014
2.121872,-5.47557,-1.275925,0.309326,1.237869,1.475479,19.4504,33.7631,21.4874,26.881195,88.8045,125.5212,NaN,0.0,25.728,,19 / 32,18012,2021-06-14 12:00:54:514
1.978211,-8.425232,-2.554428,1.635498,-3.000824,-1.361237,8.1055,36.1389,27.2125,26.881195,88.8045,125.5212,NaN,0.0,25.728,,19 / 32,18513,2021-06-14 12:00:55:015
0.311859,-10.580017,0.098343,1.897369,0.759201,1.596558,2.0386,35.1593,29.3549,26.881195,88.8045,125.5212,NaN,0.0,25.728,,19 / 32,19013,2021-06-14 12:00:55:515
-7.043136,-9.052505,0.95546,-1.038055,0.431183,-0.376846,12.8555,33.2626,28.0136,26.881195,88.8045,125.5212,NaN,0.0,25.728,,19 / 32,19513,2021-06-14 12:00:56:015
0.498596,-10.268768,-1.036514,-0.283325,1.954514,-0.132538,-4.5578,32.0114,34.8053,26.881195,88.8045,125.5212,NaN,0.0,25.728,,19 / 32,20013,2021-06-14 12:00:56:515
1.030106,-8.621552,1.769501,0.539871,5.400833,-0.611557,-35.6888,33.3694,21.0495,26.881195,88.8045,125.5212,NaN,0.0,25.728,,19 / 32,20512,2021-06-14 12:00:57:014
2.236786,-7.606415,1.980179,0.840012,-1.266846,0.142929,-25.9277,34.3597,28.6621,26.881195,88.8045,125.5212,NaN,0.0,25.728,,19 / 32,21012,2021-06-14 12:00:57:514
5.698807,-7.280807,1.11348,0.357361,-1.502182,-0.58696,-22.4976,35.5728,28.5507,26.881195,88.8045,125.5212,NaN,0.0,25.728,,16 / 32,21513,2021-06-14 12:00:58:015
8.7155,-7.084472,1.640213,0.16507,0.77536,0.42717,-32.2571,12.9227,38.7299,26.881195,88.8045,125.5212,NaN,0.0,25.728,,16 / 32,22013,2021-06-14 12:00:58:515
0.603943,-8.305526,3.110245,-0.783722,-1.578171,0.900238,-34.6329,24.9496,28.714,26.881195,88.8045,125.5212,NaN,0.0,25.728,,16 / 32,22513,2021-06-14 12:00:59:015
-0.961868,-9.344604,2.97139,0.428909,1.760025,0.804459,-13.7939,44.9829,22.4243,26.881195,88.8045,125.5212,NaN,0.0,25.728,,16 / 32,23013,2021-06-14 12:00:59:515
-1.076782,-9.435577,3.828507,0.45874,-2.357498,-3.584701,-27.2476,35.8002,27.179,26.881195,88.8045,125.5212,NaN,0.0,25.728,,16 / 32,23512,2021-06-14 12:01:00:014
0.776321,-3.100525,7.73584,3.695725,0.10611,0.654953,-9.0424,31.9992,-47.4869,26.881195,88.8045,125.5212,NaN,0.0,25.728,,16 / 32,24013,2021-06-14 12:01:00:515
-1.067215,6.299118,5.734299,0.656158,0.205627,0.252197,12.0697,-3.8025,-61.1191,26.881195,88.8045,125.5212,NaN,0.0,25.728,,16 / 32,24512,2021-06-14 12:01:01:014
-1.373672,5.686203,5.863587,-0.296982,-0.586945,-0.279282,2.3071,-5.0323,-63.1226,26.881195,88.8045,125.5212,NaN,0.0,25.728,,16 / 32,25012,2021-06-14 12:01:01:514
-3.068756,6.907242,5.518814,0.111984,0.079559,0.200089,0.7248,-6.4819,-63.1561,26.881195,88.8045,125.5212,NaN,0.0,25.728,,15 / 32,25513,2021-06-14 12:01:02:015
-1.852508,7.065262,6.869141,-0.416214,-0.570785,-0.639603,-2.179,4.3411,-62.9379,26.881195,88.8045,125.5212,NaN,0.0,25.728,,15 / 32,26013,2021-06-14 12:01:02:515
-0.526123,5.523392,7.089417,0.157883,-0.787567,-0.999313,-20.1187,-3.1693,-54.6875,26.881195,88.8045,125.5212,NaN,0.0,25.728,,15 / 32,26513,2021-06-14 12:01:03:015
-2.886795,5.264817,7.927384,-0.186996,0.179794,0.32251,-24.0738,-9.9197,-48.6816,26.881195,88.8045,125.5212,NaN,0.0,25.728,,15 / 32,27013,2021-06-14 12:01:03:515
-1.38324,5.87294,8.430161,-0.09201,0.16185,0.638886,-12.7304,-2.1866,-55.0812,26.881195,88.8045,125.5212,NaN,0.0,25.728,,17 / 32,27512,2021-06-14 12:01:04:014
-2.877228,5.29834,7.280945,-0.349091,0.877182,1.236771,2.3071,4.1122,-56.5475,26.881195,88.8045,125.5212,NaN,0.0,25.728,,17 / 32,28013,2021-06-14 12:01:04:515
-2.388809,3.239319,9.967239,0.249222,0.445755,1.949341,20.5124,-3.7796,-51.0437,26.881195,88.8045,125.5212,NaN,0.0,25.728,,18 / 32,28512,2021-06-14 12:01:05:014
-0.741592,4.862595,9.541077,-0.34288,-0.050217,0.108307,26.3168,-11.705,-45.6711,26.881195,88.8045,125.5212,NaN,0.0,25.728,,18 / 32,29013,2021-06-14 12:01:05:515
-1.134247,4.058136,7.132508,0.186737,0.182449,0.512833,28.1647,-13.6261,-44.5221,26.881195,88.8045,125.5212,NaN,0.0,25.728,,18 / 32,29513,2021-06-14 12:01:06:015
-1.033691,3.133972,10.369461,-0.641067,0.112061,-0.187225,32.9147,-19.87,-38.6017,26.881195,88.8045,125.5212,NaN,0.0,25.728,,18 / 32,30012,2021-06-14 12:01:06:514
-2.206848,4.896103,10.561005,-0.456421,0.316498,-0.401962,32.3868,-20.3522,-41.1438,26.881195,88.8045,125.5212,NaN,0.0,25.728,,18 / 32,30513,2021-06-14 12:01:07:015
0.345367,3.315933,5.743866,0.402893,0.113113,-0.065521,33.7067,-21.553,-40.2069,26.881195,88.8045,125.5212,NaN,0.0,25.728,,18 / 32,31012,2021-06-14 12:01:07:514
-2.091919,3.181854,6.907456,-0.806976,0.216812,-0.910187,36.6074,-14.3234,-39.389,26.881195,88.8045,125.5212,NaN,0.0,25.728,,19 / 32,31513,2021-06-14 12:01:08:015
-2.072769,5.820267,12.950409,0.140488,0.323151,-0.078735,34.7595,-14.8102,-38.6169,26.881195,88.8045,125.5212,NaN,0.0,25.728,,19 / 32,32012,2021-06-14 12:01:08:514
-0.880463,3.545776,5.887528,0.263351,0.163803,0.238174,32.1228,-18.9087,-36.8744,26.881195,88.8045,125.5212,NaN,0.0,25.728,,19 / 32,32513,2021-06-14 12:01:09:015
-2.259521,3.818726,4.494095,0.16597,0.110107,0.405869,33.1772,-14.5737,-35.8948,26.881195,88.8045,125.5212,NaN,0.0,25.728,,19 / 32,33012,2021-06-14 12:01:09:514
-1.129456,4.498673,10.81958,-0.473282,0.018585,0.27298,32.3853,-9.7626,-35.8231,26.881195,88.8045,125.5212,NaN,0.0,25.728,,20 / 32,33513,2021-06-14 12:01:10:015
-2.446274,3.277634,7.745423,-0.243271,0.239441,-1.173569,27.3727,-9.0546,-39.8529,26.881195,88.8045,125.5212,NaN,0.0,25.728,,20 / 32,34013,2021-06-14 12:01:10:515
-1.847717,6.026169,13.084488,0.507294,-0.411789,-0.56929,23.4146,-3.7704,-40.4129,26.881195,88.8045,125.5212,NaN,0.0,25.728,,20 / 32,34513,2021-06-14 12:01:11:015
-1.397613,4.872162,8.770142,-0.044785,-0.110138,-0.665619,18.6646,-1.8585,-41.0538,26.881195,88.8045,125.5212,NaN,0.0,25.728,,20 / 32,35013,2021-06-14 12:01:11:515
-0.751175,2.731751,7.889069,0.117401,-0.683792,-1.280273,21.5668,0.5554,-40.9515,26.881195,88.8045,125.5212,NaN,0.0,25.728,,19 / 32,35512,2021-06-14 12:01:12:014
-1.747162,1.821961,7.692749,0.274536,0.295456,-1.507172,-9.0408,18.7622,-46.7957,26.881195,88.8045,125.5212,NaN,0.0,25.728,,19 / 32,36013,2021-06-14 12:01:12:515
-0.478241,5.346222,11.547409,-0.239456,-0.116364,-0.40036,-27.771,9.3246,-40.8936,26.881195,88.8045,125.5212,NaN,0.0,25.728,,18 / 32,36512,2021-06-14 12:01:13:014
-1.488586,3.909699,5.073487,-0.809296,-0.495956,-0.438446,-29.3533,7.1533,-41.8198,26.881195,88.8045,125.5212,NaN,0.0,25.728,,18 / 32,37013,2021-06-14 12:01:13:515
-2.527664,2.779633,10.158783,0.304276,0.361053,-0.93486,-37.0026,-3.6972,-28.685,26.881195,88.8045,125.5212,NaN,0.0,25.728,,19 / 32,37513,2021-06-14 12:01:14:015
-2.369659,5.523392,11.384613,0.346619,-0.24614,-0.343369,-35.1562,-5.1361,-27.6169,26.881195,88.8045,125.5212,NaN,0.0,25.728,,19 / 32,38012,2021-06-14 12:01:14:514
-0.013763,3.234528,8.616913,0.480042,-0.239487,-0.140976,-34.6283,-5.1346,-25.5005,26.881195,88.8045,125.5212,NaN,0.0,25.728,,19 / 32,38513,2021-06-14 12:01:15:015
-1.18692,2.19545,6.15567,-0.106918,-0.092834,-0.145767,-30.6702,-8.7341,-32.8156,26.881195,88.8045,125.5212,NaN,0.0,25.728,,19 / 32,39012,2021-06-14 12:01:15:514
-1.340149,2.602463,5.60022,-0.0439,0.212982,0.015091,-29.3518,-9.2117,-35.0372,26.881195,88.8045,125.5212,NaN,0.0,25.728,,19 / 32,39513,2021-06-14 12:01:16:015
-1.335358,3.780411,12.543396,0.017899,0.250183,-0.243057,-30.6702,-10.9009,-36.5051,26.881195,88.8045,125.5212,NaN,0.0,25.728,,19 / 32,40012,2021-06-14 12:01:16:514
-0.669769,3.234528,9.13884,-0.602188,0.501755,-0.147369,-29.3518,-4.6387,-42.8894,26.881195,88.8045,125.5212,NaN,0.0,25.728,,18 / 32,40513,2021-06-14 12:01:17:015
-0.827789,2.157135,6.395096,0.387177,-0.305801,0.374786,-33.046,-3.9276,-36.5631,26.881195,88.8045,125.5212,NaN,0.0,25.728,,18 / 32,41012,2021-06-14 12:01:17:514
2.864075,3.785202,8.138077,-0.473022,0.473084,0.324112,-35.6842,-0.0839,-34.1217,26.881195,88.8045,125.5212,NaN,0.0,25.728,,19 / 32,41513,2021-06-14 12:01:18:015
-0.032913,3.938431,11.844299,0.17804,-0.369354,-0.671127,-36.4746,-7.547,-30.4825,26.881195,88.8045,125.5212,NaN,0.0,25.728,,19 / 32,42013,2021-06-14 12:01:18:515
0.187347,2.952011,7.721482,-0.393478,0.118439,-0.846893,-34.3628,-17.8894,-27.8809,26.881195,88.8045,125.5212,NaN,0.0,25.728,,20 / 32,42513,2021-06-14 12:01:19:015
-1.004959,3.593659,7.458115,-0.301422,-0.25795,-0.316742,-26.9745,-22.4426,-30.3894,26.881195,88.8045,125.5212,NaN,0.0,25.728,,20 / 32,43012,2021-06-14 12:01:19:514
0.062851,3.93364,10.824371,0.243011,0.143662,-0.338669,-23.0164,-30.3741,-27.3636,26.881195,88.8045,125.5212,NaN,0.0,25.728,,20 / 32,43513,2021-06-14 12:01:20:015
-1.957855,3.019058,10.005554,-0.666275,-0.12825,-1.02417,-11.6699,-37.5626,-26.7166,26.881195,88.8045,125.5212,NaN,0.0,25.728,,20 / 32,44013,2021-06-14 12:01:20:515
0.522537,1.989548,9.536285,-0.25943,-0.481033,-0.414124,-7.9758,-40.921,-29.0558,26.881195,88.8045,125.5212,NaN,0.0,25.728,,20 / 32,44513,2021-06-14 12:01:21:015
0.613525,0.639221,9.727814,0.708801,0.086929,-0.016342,-3.7552,-40.9103,-31.8649,26.881195,88.8045,125.5212,NaN,0.0,25.728,,20 / 32,45013,2021-06-14 12:01:21:515
0.694931,2.703018,9.287292,0.089172,-0.282623,-0.064621,-4.8111,-39.7095,-32.756,26.881195,88.8045,125.5212,NaN,0.0,25.728,,19 / 32,45512,2021-06-14 12:01:22:014
-0.018555,2.640778,9.019135,-0.03804,0.200287,0.412964,-11.4059,-40.4495,-29.2267,26.881195,88.8045,125.5212,NaN,0.0,25.728,,19 / 32,46012,2021-06-14 12:01:22:514
1.710068,3.301575,8.597763,-0.14447,-0.327728,-0.566193,-11.142,-40.9302,-27.5818,26.881195,88.8045,125.5212,NaN,0.0,25.728,,19 / 32,46513,2021-06-14 12:01:23:015
-0.593155,2.075745,8.2099,-0.047806,0.025497,-0.799927,10.228,-39.4272,-34.7366,26.881195,88.8045,125.5212,NaN,0.0,25.728,,19 / 32,47013,2021-06-14 12:01:23:515
-1.660965,2.894562,7.970474,0.772278,-0.062653,0.27298,19.989,-40.1215,-26.3367,26.881195,88.8045,125.5212,NaN,0.0,25.728,,19 / 32,47513,2021-06-14 12:01:24:015
1.078003,2.54979,11.092514,-0.709595,-0.549911,-0.231171,15.7684,-41.5771,-26.3245,26.881195,88.8045,125.5212,NaN,0.0,25.728,,19 / 32,48013,2021-06-14 12:01:24:515
-2.264313,4.163483,11.418121,-0.497086,0.244064,-0.80339,22.8912,-36.0229,-27.0218,26.881195,88.8045,125.5212,NaN,0.0,25.728,,20 / 32,48513,2021-06-14 12:01:25:015
-1.024109,2.559372,6.51001,0.322205,0.139404,0.297836,20.7809,-39.3982,-23.7885,26.881195,88.8045,125.5212,NaN,0.0,25.728,,20 / 32,49013,2021-06-14 12:01:25:515
0.211288,3.397339,7.616135,0.804413,-0.036728,0.084152,17.3508,-37.9639,-29.689,26.881195,88.8045,125.5212,NaN,0.0,25.728,,20 / 32,49513,2021-06-14 12:01:26:015
-1.139038,4.048569,11.197861,0.618698,0.313751,1.12883,12.8662,-38.2172,-25.3662,26.881195,88.8045,125.5212,NaN,0.0,25.728,,20 / 32,50013,2021-06-14 12:01:26:515
0.225662,3.124405,7.089417,-0.04097,0.206512,0.114609,4.9515,-43.2922,-21.8491,26.881195,88.8045,125.5212,NaN,0.0,25.728,,20 / 32,50513,2021-06-14 12:01:27:015
-1.804626,3.205795,6.64888,-0.526291,0.526444,0.352875,-5.8655,-44.7662,-20.4514,26.881195,88.8045,125.5212,NaN,0.0,25.728,,20 / 32,51013,2021-06-14 12:01:27:515
0.460297,3.612824,10.335953,0.014786,0.132034,0.454163,-13.7802,-40.6967,-25.0427,26.881195,88.8045,125.5212,NaN,0.0,25.728,,20 / 32,51513,2021-06-14 12:01:28:015
-1.00975,3.938431,8.76535,0.067429,-0.058655,-0.045456,-12.4619,-38.768,-30.1971,26.881195,88.8045,125.5212,NaN,0.0,25.728,,20 / 32,52013,2021-06-14 12:01:28:515
-0.439926,2.276856,8.238632,-0.253311,-0.791641,-0.389801,-9.2957,-42.8513,-26.9379,26.881195,88.8045,125.5212,NaN,0.0,25.728,,19 / 32,52513,2021-06-14 12:01:29:015
0.345367,0.998352,8.224259,0.414612,0.219818,0.494644,-16.1545,-40.2222,-28.067,26.881195,88.8045,125.5212,NaN,0.0,25.728,,19 / 32,53013,2021-06-14 12:01:29:515
2.418747,2.281647,10.316788,0.137909,-0.088486,0.270309,-24.5987,-34.2285,-28.009,26.881195,88.8045,125.5212,NaN,0.0,25.728,,19 / 32,53513,2021-06-14 12:01:30:015
0.489029,3.22496,7.683167,0.290421,0.135941,-0.682831,-18.5303,-38.5437,-25.7233,26.881195,88.8045,125.5212,NaN,0.0,25.728,,19 / 32,54013,2021-06-14 12:01:30:515
-2.249939,2.291214,7.170807,0.437775,0.434113,0.372757,-12.4603,-43.1,-25.4242,26.881195,88.8045,125.5212,NaN,0.0,25.728,,19 / 32,54512,2021-06-14 12:01:31:014
-2.230789,3.44043,10.034271,-0.253754,0.614944,-0.235519,-3.4912,-38.7436,-38.2568,26.881195,88.8045,125.5212,NaN,0.0,25.728,,19 / 32,55013,2021-06-14 12:01:31:515
-3.044815,2.918503,8.621704,-0.209549,-0.236114,0.347717,0.9933,-39.6927,-37.822,26.881195,88.8045,125.5212,NaN,0.0,25.728,,19 / 32,55512,2021-06-14 12:01:32:014
-1.675339,2.54979,8.76535,-0.319443,0.338425,0.015808,-8.7677,-43.0893,-25.7935,26.881195,88.8045,125.5212,NaN,0.0,25.728,,19 / 32,56013,2021-06-14 12:01:32:515
-0.243607,2.952011,8.181168,0.485535,-0.362167,-0.311676,-7.4478,-41.6428,-29.8553,26.881195,88.8045,125.5212,NaN,0.0,25.728,,18 / 32,56512,2021-06-14 12:01:33:014
-0.684128,2.870621,10.68071,0.081711,-0.319199,-0.304932,2.8412,-44.5023,-32.6477,26.881195,88.8045,125.5212,NaN,0.0,25.728,,18 / 32,57013,2021-06-14 12:01:33:515
-1.775894,5.307907,8.252991,-0.098221,0.160797,0.063477,7.0633,-48.822,-24.6078,26.881195,88.8045,125.5212,NaN,0.0,25.728,,17 / 32,57513,2021-06-14 12:01:34:015
-1.153397,4.048569,7.237854,-0.080292,-0.045517,-0.386246,7.8552,-49.0601,-23.9243,26.881195,88.8045,125.5212,NaN,0.0,25.728,,17 / 32,58012,2021-06-14 12:01:34:514
-1.263534,2.664719,8.612122,0.026062,-0.086807,0.406754,8.6456,-49.2996,-25.7706,26.881195,88.8045,125.5212,NaN,0.0,25.728,,17 / 32,58513,2021-06-14 12:01:35:015
-0.128677,4.077286,10.374252,-0.155746,0.220535,0.025116,0.2045,-49.5636,-30.2368,26.881195,88.8045,125.5212,NaN,0.0,25.728,,17 / 32,59013,2021-06-14 12:01:35:515
-1.704071,2.870621,6.878723,0.135071,-0.694885,-0.526688,8.3817,-48.3368,-28.0029,26.881195,88.8045,125.5212,NaN,0.0,25.728,,17 / 32,59513,2021-06-14 12:01:36:015
-0.334579,3.909699,7.788513,0.346176,-0.21489,-0.519669,13.1317,-48.3246,-26.6708,26.881195,88.8045,125.5212,NaN,0.0,25.728,,17 / 32,60013,2021-06-14 12:01:36:515
-0.966644,4.359802,8.794083,0.132141,-0.593323,-0.79451,31.5979,-38.1653,-30.7144,26.881195,88.8045,125.5212,NaN,0.0,25.728,,18 / 32,60513,2021-06-14 12:01:37:015
-1.043259,2.35347,8.569031,-0.728149,0.003311,-1.293411,38.7192,-20.3354,-38.5239,26.881195,88.8045,125.5212,NaN,0.0,25.728,,18 / 32,61012,2021-06-14 12:01:37:514
-0.095169,3.009476,9.27771,0.321136,0.320755,0.444046,41.3559,-12.8677,-40.8295,26.881195,88.8045,125.5212,NaN,0.0,25.728,,19 / 32,61512,2021-06-14 12:01:38:014
-0.976227,3.785202,9.248978,-0.163116,-0.236465,-0.118256,41.0919,-15.9958,-36.8088,26.881195,88.8045,125.5212,NaN,0.0,25.728,,19 / 32,62012,2021-06-14 12:01:38:514
-1.584351,3.646332,8.588181,-0.067505,0.028519,0.111404,37.1353,-15.5258,-36.058,26.881195,88.8045,125.5212,NaN,0.0,25.728,,19 / 32,62513,2021-06-14 12:01:39:015
-1.981796,3.689438,8.343979,0.573776,0.085693,0.892242,28.1662,-29.9911,-31.1584,26.881195,88.8045,125.5212,NaN,0.0,25.728,,19 / 32,63013,2021-06-14 12:01:39:515
0.881668,5.307907,8.066239,0.533661,-0.604965,-0.201523,20.7809,-36.2686,-24.8169,26.881195,88.8045,125.5212,NaN,0.0,25.728,,19 / 32,63513,2021-06-14 12:01:40:015
-2.158966,4.182633,8.353546,-0.273376,0.016266,-0.18367,31.5964,-29.0192,-27.179,26.881195,88.8045,125.5212,NaN,0.0,25.728,,19 / 32,64013,2021-06-14 12:01:40:515
-0.071213,2.789215,9.59375,-0.323883,-0.399719,-0.625488,33.9706,-24.1989,-26.5564,26.881195,88.8045,125.5212,NaN,0.0,25.728,,19 / 32,64513,2021-06-14 12:01:41:015
-0.813415,3.73732,10.355103,-0.180069,-0.616684,-0.640045,35.0235,-15.2908,-35.4538,26.881195,88.8045,125.5212,NaN,0.0,25.728,,19 / 32,65013,2021-06-14 12:01:41:515
-0.808639,3.6176,7.941742,-0.34288,-0.02626,-1.608276,34.758,0.3525,-40.6418,26.881195,88.8045,125.5212,NaN,0.0,25.728,,18 / 32,65512,2021-06-14 12:01:42:014
-1.18692,2.971176,7.266587,0.238754,-0.442413,-0.709106,29.744,9.0027,-44.4778,26.881195,88.8045,125.5212,NaN,0.0,25.728,,18 / 32,66013,2021-06-14 12:01:42:515
-1.234802,2.35347,10.723816,0.043106,-0.628754,-0.918518,18.1335,20.7626,-44.9219,26.881195,88.8045,125.5212,NaN,0.0,25.728,,20 / 32,66514,2021-06-14 12:01:43:016
-1.517319,3.512268,8.899429,-0.323608,-0.255112,-1.200561,-0.8621,24.321,-46.8033,26.881195,88.8045,125.5212,NaN,0.0,25.728,,20 / 32,67012,2021-06-14 12:01:43:514
-1.574783,2.085312,9.588959,0.274185,-0.0401,-0.443863,-17.746,15.6097,-45.7626,26.881195,88.8045,125.5212,NaN,0.0,25.728,,20 / 32,67513,2021-06-14 12:01:44:015
-1.158188,2.827515,9.617691,-0.320786,-0.388,-0.617508,-20.6482,15.1199,-43.6554,26.881195,88.8045,125.5212,NaN,0.0,25.728,,20 / 32,68013,2021-06-14 12:01:44:515
-1.297058,3.75647,9.502762,-0.282333,-0.368912,-1.009689,-29.3533,6.6727,-41.7389,26.881195,88.8045,125.5212,NaN,0.0,25.728,,21 / 32,68513,2021-06-14 12:01:45:015
-1.091156,1.141998,9.052658,0.210876,-0.361816,-0.645111,-31.1981,-3.1998,-40.4129,26.881195,88.8045,125.5212,NaN,0.0,25.728,,21 / 32,69012,2021-06-14 12:01:45:514
-2.858078,2.626404,6.936188,0.528595,0.268921,-0.959274,-25.1282,-18.1046,-43.4494,26.881195,88.8045,125.5212,NaN,0.0,25.728,,21 / 32,69513,2021-06-14 12:01:46:015
-1.297058,4.125183,7.573044,0.045136,0.209885,0.173462,-25.1266,-29.4174,-37.5107,26.881195,88.8045,125.5212,NaN,0.0,25.728,,21 / 32,70013,2021-06-14 12:01:46:515
-1.981796,4.728516,9.033508,0.0811,0.527329,0.409149,-26.1826,-30.6229,-39.0121,26.881195,88.8045,125.5212,NaN,0.0,25.728,,21 / 32,70513,2021-06-14 12:01:47:015
-0.746384,5.231293,9.143631,-0.200043,-0.216675,0.362274,-36.7355,-24.3942,-36.8286,26.881195,88.8045,125.5212,NaN,0.0,25.728,,21 / 32,71012,2021-06-14 12:01:47:514
-0.621887,4.977509,8.683945,-0.582123,0.799683,-0.245804,-41.2216,-21.759,-34.5077,26.881195,88.8045,125.5212,NaN,0.0,25.728,,21 / 32,71513,2021-06-14 12:01:48:015
-1.459854,3.694214,6.754227,0.333115,0.240326,0.870407,-41.7496,-16.4658,-33.4579,26.881195,88.8045,125.5212,NaN,0.0,25.728,,21 / 32,72012,2021-06-14 12:01:48:514
0.187347,5.427628,9.402206,0.353897,-0.311752,0.430191,-37.5305,-1.7731,-41.7557,26.881195,88.8045,125.5212,NaN,0.0,25.728,,21 / 32,72512,2021-06-14 12:01:49:014
-0.329788,4.144333,8.525925,-0.534271,0.822769,0.281052,-40.6967,0.383,-37.6053,26.881195,88.8045,125.5212,NaN,0.0,25.728,,21 / 32,73013,2021-06-14 12:01:49:515
-0.559631,4.192215,8.60733,0.543594,0.556534,0.917099,-26.1887,11.2534,-49.5453,26.881195,88.8045,125.5212,NaN,0.0,25.728,,21 / 32,73513,2021-06-14 12:01:50:015
-0.348953,5.039765,7.941742,-0.087219,0.63385,0.427887,-10.0952,14.4272,-56.3812,26.881195,88.8045,125.5212,NaN,0.0,25.728,,21 / 32,74012,2021-06-14 12:01:50:514
1.571198,5.509018,7.788513,0.075592,-0.505539,0.151443,-7.193,14.1953,-56.8497,26.881195,88.8045,125.5212,NaN,0.0,25.728,,21 / 32,74512,2021-06-14 12:01:51:014
0.479446,5.89209,8.774933,0.08136,-0.055817,0.330673,-6.665,17.3248,-54.2419,26.881195,88.8045,125.5212,NaN,0.0,25.728,,21 / 32,75013,2021-06-14 12:01:51:515
-0.128677,4.704575,6.102997,-0.371918,0.06572,0.265701,2.832,16.1484,-53.9078,26.881195,88.8045,125.5212,NaN,0.0,25.728,,21 / 32,75513,2021-06-14 12:01:52:015
1.336578,3.770828,7.640076,0.425797,-0.368027,0.40596,0.9857,15.1794,-54.5746,26.881195,88.8045,125.5212,NaN,0.0,25.728,,21 / 32,76013,2021-06-14 12:01:52:515
-0.923553,4.053345,7.774155,0.070618,0.116943,0.090912,2.832,17.1112,-54.0695,26.881195,88.8045,125.5212,NaN,0.0,25.728,,21 / 32,76513,2021-06-14 12:01:53:015
0.9104,5.226502,8.712677,-0.132584,0.273804,0.452118,12.8586,14.0091,-54.335,26.881195,88.8045,125.5212,NaN,0.0,25.728,,21 / 32,77013,2021-06-14 12:01:53:515
0.287918,4.378968,5.978501,-0.023743,-0.103134,-0.409149,8.9005,13.5178,-55.9555,26.881195,88.8045,125.5212,NaN,0.0,25.728,,21 / 32,77513,2021-06-14 12:01:54:015
-0.741592,3.766052,8.320023,0.408478,0.137894,0.394501,6.7902,16.8808,-53.8467,26.881195,88.8045,125.5212,NaN,0.0,25.728,,21 / 32,78013,2021-06-14 12:01:54:515
1.389237,4.551346,8.501984,-0.12468,0.025864,0.338226,16.0233,15.2222,-51.4526,26.881195,88.8045,125.5212,NaN,0.0,25.728,,21 / 32,78513,2021-06-14 12:01:55:015
0.594376,3.392548,7.889069,0.654297,-0.363678,0.736191,15.7608,9.2041,-54.039,26.881195,88.8045,125.5212,NaN,0.0,25.728,,21 / 32,79012,2021-06-14 12:01:55:514
0.886459,4.240097,10.886612,0.449234,0.314728,1.466873,30.0095,-3.2715,-47.9523,26.881195,88.8045,125.5212,NaN,0.0,25.728,,21 / 32,79514,2021-06-14 12:01:56:016
-1.828567,3.411698,8.023148,-0.193039,0.809799,0.064087,39.5096,-16.7221,-34.4315,26.881195,88.8045,125.5212,NaN,0.0,25.728,,21 / 32,80013,2021-06-14 12:01:56:515
0.675766,3.947998,9.057449,-0.933563,0.026749,-0.986084,35.025,-22.5113,-38.298,26.881195,88.8045,125.5212,NaN,0.0,25.728,,20 / 32,80513,2021-06-14 12:01:57:015
-1.004959,4.09166,10.877045,0.394104,0.985306,0.708847,32.3883,-28.0548,-32.2647,26.881195,88.8045,125.5212,NaN,0.0,25.728,,20 / 32,81013,2021-06-14 12:01:57:515
-1.076782,5.255234,9.881042,-0.501953,-0.068771,-0.141235,18.9346,-41.3284,-25.8133,26.881195,88.8045,125.5212,NaN,0.0,25.728,,20 / 32,81513,2021-06-14 12:01:58:015
-1.320999,3.766052,7.946533,0.170837,-1.011002,-0.093124,14.9765,-40.8585,-31.1386,26.881195,88.8045,125.5212,NaN,0.0,25.728,,20 / 32,82012,2021-06-14 12:01:58:514
-1.16777,3.550568,6.284958,0.574493,0.170471,0.86731,5.4794,-46.1792,-24.8184,26.881195,88.8045,125.5212,NaN,0.0,25.728,,20 / 32,82513,2021-06-14 12:01:59:015
0.479446,5.89209,9.531494,-0.231918,8.24E-4,0.325531,-2.9633,-46.6843,-24.6887,26.881195,88.8045,125.5212,NaN,0.0,25.728,,20 / 32,83013,2021-06-14 12:01:59:515
-0.746384,4.42685,6.744644,-0.764816,0.840256,-0.243591,0.2029,-46.1929,-30.2933,26.881195,88.8045,125.5212,NaN,0.0,25.728,,19 / 32,83513,2021-06-14 12:02:00:015
-0.253174,2.784424,6.438187,0.05394,0.406067,0.893585,-12.9883,-45.99,-26.5518,26.881195,88.8045,125.5212,NaN,0.0,25.728,,19 / 32,84013,2021-06-14 12:02:00:515
1.647812,4.297562,9.397415,-0.121399,-0.116531,0.354736,-21.1685,-39.7552,-30.0323,26.881195,88.8045,125.5212,NaN,0.0,25.728,,18 / 32,84513,2021-06-14 12:02:01:015
-0.415985,1.793228,6.222702,-0.43335,0.31871,-1.332214,-5.8655,-42.601,-36.5082,26.881195,88.8045,125.5212,NaN,0.0,25.728,,18 / 32,85013,2021-06-14 12:02:01:515
-1.378448,0.581757,7.659226,0.699036,0.308502,-0.840408,17.6147,-37.7213,-40.8218,26.881195,88.8045,125.5212,NaN,0.0,25.728,,19 / 32,85513,2021-06-14 12:02:02:015
-1.230011,2.904129,10.441299,0.083588,-0.486542,-0.938141,34.4971,-23.7167,-37.1765,26.881195,88.8045,125.5212,NaN,0.0,25.728,,19 / 32,86012,2021-06-14 12:02:02:514
-1.809418,4.642319,8.569031,-0.102219,-0.097977,-0.63765,36.3419,-9.0302,-42.3431,26.881195,88.8045,125.5212,NaN,0.0,25.728,,20 / 32,86513,2021-06-14 12:02:03:015
-1.038483,2.904129,9.627258,-0.206787,-0.514679,0.048019,34.4955,-11.2015,-42.3035,26.881195,88.8045,125.5212,NaN,0.0,25.728,,20 / 32,87013,2021-06-14 12:02:03:515
-1.593933,2.329529,10.163559,0.049408,-0.322494,-0.573654,35.5499,0.8347,-40.5838,26.881195,88.8045,125.5212,NaN,0.0,25.728,,19 / 32,87512,2021-06-14 12:02:04:014
-1.426331,3.631973,7.046311,0.471161,0.038193,-0.267471,31.3278,3.2303,-44.7586,26.881195,88.8045,125.5212,NaN,0.0,25.728,,19 / 32,88013,2021-06-14 12:02:04:515
0.072433,2.497116,10.441299,-0.040436,-0.821381,-1.238022,24.202,16.9296,-46.7682,26.881195,88.8045,125.5212,NaN,0.0,25.728,,20 / 32,88513,2021-06-14 12:02:05:015
-1.139038,2.583313,8.698318,-0.100174,-0.873398,-2.52095,-15.6357,15.6158,-51.4709,26.881195,88.8045,125.5212,NaN,0.0,25.728,,20 / 32,89012,2021-06-14 12:02:05:514
-0.621887,3.569718,9.502762,-0.063522,-0.657425,-0.711868,-33.5739,-3.9291,-39.1861,26.881195,88.8045,125.5212,NaN,0.0,25.728,,20 / 32,89513,2021-06-14 12:02:06:015
-1.340149,4.762039,8.075821,0.517502,-0.41481,-0.744888,-35.6812,-17.4118,-30.217,26.881195,88.8045,125.5212,NaN,0.0,25.728,,20 / 32,90012,2021-06-14 12:02:06:514
0.21608,5.183411,9.253769,-0.115265,-0.27179,0.216782,-35.6812,-17.4118,-28.6972,26.881195,88.8045,125.5212,NaN,0.0,25.728,,20 / 32,90513,2021-06-14 12:02:07:015
0.86731,4.07251,6.562683,-0.386917,0.003494,0.077408,-38.5834,-16.217,-28.8971,26.881195,88.8045,125.5212,NaN,0.0,25.728,,20 / 32,91013,2021-06-14 12:02:07:515
-0.243607,2.712601,8.818024,0.555054,0.752457,0.328186,-37.001,-16.6946,-31.5796,26.881195,88.8045,125.5212,NaN,0.0,25.728,,20 / 32,91512,2021-06-14 12:02:08:014
0.225662,5.461136,9.330383,0.050018,0.284622,0.272705,-36.7386,-11.1572,-37.5198,26.881195,88.8045,125.5212,NaN,0.0,25.728,,20 / 32,92013,2021-06-14 12:02:08:515
-1.627457,3.694214,10.762115,-0.559219,0.615829,0.858337,-37.7945,1.355,-38.2736,26.881195,88.8045,125.5212,NaN,0.0,25.728,,21 / 32,92512,2021-06-14 12:02:09:014
-1.100723,2.832306,7.889069,0.054108,0.556534,1.583069,-4.5547,19.0155,-57.1945,26.881195,88.8045,125.5212,NaN,0.0,25.728,,21 / 32,93013,2021-06-14 12:02:09:515
-1.440704,4.192215,9.349533,0.041412,0.177124,0.205154,7.0526,20.491,-56.4285,26.881195,88.8045,125.5212,NaN,0.0,25.728,,21 / 32,93512,2021-06-14 12:02:10:014
-0.784698,3.943222,8.042298,0.009903,-0.220489,-0.216248,-6.4026,21.6583,-55.426,26.881195,88.8045,125.5212,NaN,0.0,25.728,,21 / 32,94013,2021-06-14 12:02:10:515
-1.34494,3.416489,8.080612,0.614792,0.320313,0.434006,-4.5547,15.8859,-57.6843,26.881195,88.8045,125.5212,NaN,0.0,25.728,,22 / 32,94512,2021-06-14 12:02:11:014
-1.004959,5.470719,8.525925,0.502945,-0.160385,0.052826,-3.7628,16.3696,-57.1213,26.881195,88.8045,125.5212,NaN,0.0,25.728,,22 / 32,95012,2021-06-14 12:02:11:514
-1.20607,4.661484,7.462906,-0.163376,0.247345,0.656998,-2.1805,19.0216,-54.2496,26.881195,88.8045,125.5212,NaN,0.0,25.728,,22 / 32,95513,2021-06-14 12:02:12:015
-1.809418,2.640778,7.094193,0.118027,0.871582,1.266327,16.0233,14.0183,-55.3024,26.881195,88.8045,125.5212,NaN,0.0,25.728,,22 / 32,96013,2021-06-14 12:02:12:515
0.503387,3.320725,10.273697,0.228989,-0.010361,0.838532,30.5374,-2.3071,-49.0341,26.881195,88.8045,125.5212,NaN,0.0,25.728,,22 / 32,96512,2021-06-14 12:02:13:014
-0.028122,3.124405,8.88028,0.029694,-0.093979,0.180389,32.9117,-0.6165,-45.8649,26.881195,88.8045,125.5212,NaN,0.0,25.728,,22 / 32,97013,2021-06-14 12:02:13:515
-0.444717,1.405365,8.865906,0.226685,-0.193146,-0.766098,31.0623,11.8942,-41.1865,26.881195,88.8045,125.5212,NaN,0.0,25.728,,22 / 32,97513,2021-06-14 12:02:14:015
-0.866089,2.626404,10.407776,0.154327,-0.926926,-1.621429,11.2747,19.7815,-41.3971,26.881195,88.8045,125.5212,NaN,0.0,25.728,,22 / 32,98013,2021-06-14 12:02:14:515
0.886459,2.027863,9.608109,0.318207,-0.953751,-1.734878,-15.6372,20.9106,-43.7485,26.881195,88.8045,125.5212,NaN,0.0,25.728,,22 / 32,98513,2021-06-14 12:02:15:015
0.091583,3.095673,9.560226,0.141373,-0.233185,-0.980316,-46.2387,7.3471,-40.2405,26.881195,88.8045,125.5212,NaN,0.0,25.728,,22 / 32,99012,2021-06-14 12:02:15:514
-1.455063,2.822724,9.13884,-0.648346,-0.308273,-1.023102,-37.2665,-8.7524,-36.4944,26.881195,88.8045,125.5212,NaN,0.0,25.728,,20 / 32,99512,2021-06-14 12:02:16:014
-0.291489,0.921738,9.79007,-0.495209,-0.545303,-1.045212,-34.6268,-12.8372,-35.8597,26.881195,88.8045,125.5212,NaN,0.0,25.728,,20 / 32,100012,2021-06-14 12:02:16:514
-2.508514,2.817948,10.029495,0.448883,0.472641,1.306992,-32.7789,-19.3298,-36.9843,26.881195,88.8045,125.5212,NaN,0.0,25.728,,15 / 32,100512,2021-06-14 12:02:17:014
-1.818985,2.286423,8.583389,0.268234,0.220718,0.968063,-34.8923,-1.0437,-39.3921,26.881195,88.8045,125.5212,NaN,0.0,25.728,,15 / 32,101013,2021-06-14 12:02:17:515
-0.741592,1.620834,8.72226,-0.10257,-0.375305,0.125793,-33.0475,7.1442,-41.9556,26.881195,88.8045,125.5212,NaN,0.0,25.728,,15 / 32,101513,2021-06-14 12:02:18:015
-0.550064,2.741333,11.039841,0.074081,0.263229,0.224503,-36.4761,5.69,-37.2482,26.881195,88.8045,125.5212,NaN,0.0,25.728,,15 / 32,102013,2021-06-14 12:02:18:515
0.402832,4.33107,9.565018,0.035995,0.488174,1.030014,-28.2989,14.859,-45.9595,26.881195,88.8045,125.5212,NaN,0.0,25.728,,16 / 32,102512,2021-06-14 12:02:19:014
0.034119,2.999909,6.878723,0.118744,-0.567581,0.2957,-30.9372,15.0909,-40.889,26.881195,88.8045,125.5212,NaN,0.0,25.728,,16 / 32,103013,2021-06-14 12:02:19:515
-1.158188,2.228974,11.063782,0.122467,0.466614,0.855667,-15.6372,23.558,-47.7341,26.881195,88.8045,125.5212,NaN,0.0,25.728,,16 / 32,103513,2021-06-14 12:02:20:015
-0.459076,4.024613,9.368683,0.320419,0.415039,0.987137,1.5121,23.8449,-51.3733,26.881195,88.8045,125.5212,NaN,0.0,25.728,,16 / 32,104013,2021-06-14 12:02:20:515
-0.468658,3.473953,7.185181,0.736679,0.033752,0.495178,2.8305,23.6084,-52.1164,26.881195,88.8045,125.5212,NaN,0.0,25.728,,16 / 32,104512,2021-06-14 12:02:21:014
-2.853287,2.224182,9.560226,-0.229691,0.356705,0.178513,9.4269,18.8141,-46.6217,26.881195,88.8045,125.5212,NaN,0.0,25.728,,16 / 32,105013,2021-06-14 12:02:21:515
-0.444717,3.861817,8.70311,-0.071411,-0.706161,-0.275375,17.0776,21.7224,-45.2667,26.881195,88.8045,125.5212,NaN,0.0,25.728,,16 / 32,105512,2021-06-14 12:02:22:014
-0.770325,2.703018,7.683167,-0.249939,-0.302338,-1.149414,-1.1261,25.5234,-48.0621,26.881195,88.8045,125.5212,NaN,0.0,25.728,,16 / 32,106012,2021-06-14 12:02:22:514
-0.861313,3.359024,8.267365,0.0233,0.213791,0.070221,-16.9556,20.6665,-46.9742,26.881195,88.8045,125.5212,NaN,0.0,25.728,,17 / 32,106513,2021-06-14 12:02:23:015
0.278336,4.402909,9.92894,0.024277,-0.220047,0.108475,-18.2755,21.3837,-46.8185,26.881195,88.8045,125.5212,NaN,0.0,25.728,,17 / 32,107012,2021-06-14 12:02:23:514
-1.675339,3.708588,8.631271,-0.380875,0.619293,-0.484085,-19.5938,21.6217,-45.5688,26.881195,88.8045,125.5212,NaN,0.0,25.728,,17 / 32,107513,2021-06-14 12:02:24:015
-3.011307,2.51149,8.391861,0.174484,0.424713,0.351089,-11.6791,19.9585,-51.506,26.881195,88.8045,125.5212,NaN,0.0,25.728,,17 / 32,108013,2021-06-14 12:02:24:515
-0.827789,1.87941,10.402985,-0.700989,-0.675705,-0.667297,-7.1945,23.822,-50.3555,26.881195,88.8045,125.5212,NaN,0.0,25.728,,17 / 32,108512,2021-06-14 12:02:25:014
-1.100723,4.694992,9.818802,0.429077,0.115784,0.16423,-17.7475,19.4595,-47.9248,26.881195,88.8045,125.5212,NaN,0.0,25.728,,17 / 32,109012,2021-06-14 12:02:25:514
-1.119873,3.177078,7.185181,0.184341,0.298828,0.579147,-7.1945,20.6924,-52.3651,26.881195,88.8045,125.5212,NaN,0.0,25.728,,16 / 32,109513,2021-06-14 12:02:26:015
-0.205292,2.650345,7.65445,-0.299561,-0.430084,-0.748352,-7.4585,22.8577,-50.2411,26.881195,88.8045,125.5212,NaN,0.0,25.728,,16 / 32,110013,2021-06-14 12:02:26:515
-0.382462,4.862595,9.253769,-0.062454,0.082932,-0.539993,-12.7335,17.067,-51.207,26.881195,88.8045,125.5212,NaN,0.0,25.728,,16 / 32,110513,2021-06-14 12:02:27:015
-0.439926,2.86583,7.434174,-0.289703,0.098648,0.624069,-4.2923,20.2194,-49.7543,26.881195,88.8045,125.5212,NaN,0.0,25.728,,16 / 32,111012,2021-06-14 12:02:27:514
0.182571,2.444443,8.128495,0.371109,-0.508911,-0.176132,-8.7769,19.9661,-49.4827,26.881195,88.8045,125.5212,NaN,0.0,25.728,,17 / 32,111513,2021-06-14 12:02:28:015
-0.856522,3.766052,11.609665,0.012741,0.33931,0.532455,-6.1386,21.1777,-49.2233,26.881195,88.8045,125.5212,NaN,0.0,25.728,,17 / 32,112013,2021-06-14 12:02:28:515
0.350159,3.359024,8.334397,-0.119354,0.265366,0.79895,7.8445,20.9747,-49.7894,26.881195,88.8045,125.5212,NaN,0.0,25.728,,18 / 32,112513,2021-06-14 12:02:29:015
1.585571,3.675064,9.723038,0.627487,0.578735,0.739029,11.5387,20.5032,-50.0793,26.881195,88.8045,125.5212,NaN,0.0,25.728,,18 / 32,113013,2021-06-14 12:02:29:515
-0.526123,3.507477,10.991959,0.266281,0.855072,1.741089,32.9102,5.1605,-40.7532,26.881195,88.8045,125.5212,NaN,0.0,25.728,,17 / 32,113512,2021-06-14 12:02:30:014
-1.560409,3.133972,9.301651,-0.159653,0.972519,1.132462,30.5405,-26.6159,-35.3577,26.881195,88.8045,125.5212,NaN,0.0,25.728,,17 / 32,114013,2021-06-14 12:02:30:515
-1.292267,3.009476,8.281723,0.173859,0.214325,1.196732,17.6147,-37.4817,-29.2175,26.881195,88.8045,125.5212,NaN,0.0,25.728,,17 / 32,114513,2021-06-14 12:02:31:015
-1.244385,4.359802,9.244186,0.191528,0.653839,-0.311325,11.8103,-37.0163,-27.7756,26.881195,88.8045,125.5212,NaN,0.0,25.728,,17 / 32,115013,2021-06-14 12:02:31:515
-1.598724,3.454804,8.056671,-0.106567,-0.034241,-0.974091,19.9875,-27.6077,-29.9454,26.881195,88.8045,125.5212,NaN,0.0,25.728,,18 / 32,115513,2021-06-14 12:02:32:015
0.149048,2.415711,8.233841,0.439209,-0.818726,-1.051056,25.2625,-19.1696,-34.9899,26.881195,88.8045,125.5212,NaN,0.0,25.728,,18 / 32,116012,2021-06-14 12:02:32:514
-1.479004,1.994339,11.494736,0.182037,-0.349564,-0.136093,31.0654,-4.953,-37.3627,26.881195,88.8045,125.5212,NaN,0.0,25.728,,19 / 32,116513,2021-06-14 12:02:33:015
-0.425568,4.115601,7.3815,0.202179,-0.152313,0.062317,31.3293,-10.0067,-39.0045,26.881195,88.8045,125.5212,NaN,0.0,25.728,,19 / 32,117013,2021-06-14 12:02:33:515
2.050049,1.86026,8.995193,0.252167,0.416092,0.273056,27.3727,-9.2957,-47.4075,26.881195,88.8045,125.5212,NaN,0.0,25.728,,19 / 32,117513,2021-06-14 12:02:34:015
0.005402,3.699005,8.573822,0.266541,0.328918,0.603027,23.6801,-22.5433,-48.8785,26.881195,88.8045,125.5212,NaN,0.0,25.728,,19 / 32,118013,2021-06-14 12:02:34:515
-0.277115,2.023071,8.899429,-0.518921,0.59285,0.365295,14.447,-28.5858,-53.0243,26.881195,88.8045,125.5212,NaN,0.0,25.728,,19 / 32,118513,2021-06-14 12:02:35:015
0.005402,0.768509,9.248978,0.092285,-0.761551,0.073151,16.0278,-12.4557,-64.5538,26.881195,88.8045,125.5212,NaN,0.0,25.728,,19 / 32,119014,2021-06-14 12:02:35:516
1.312622,0.557816,9.507553,-0.023209,-0.297897,0.102539,11.2793,-10.7849,-69.2047,26.881195,88.8045,125.5212,NaN,0.0,25.728,,18 / 32,119513,2021-06-14 12:02:36:015
0.704498,1.209045,10.053436,-0.149628,-0.294785,-0.32074,8.1131,-11.5143,-69.1284,26.881195,88.8045,125.5212,NaN,0.0,25.728,,18 / 32,120012,2021-06-14 12:02:36:514
1.609512,1.30481,9.464462,0.138535,0.120667,0.210571,8.3771,-13.4399,-66.2292,26.881195,88.8045,125.5212,NaN,0.0,25.728,,18 / 32,120513,2021-06-14 12:02:37:015
2.169754,1.089325,9.478821,0.046204,-0.034775,0.153839,8.6411,-14.6423,-66.4902,26.881195,88.8045,125.5212,NaN,0.0,25.728,,18 / 32,121012,2021-06-14 12:02:37:514
0.584793,1.084534,8.559448,0.306046,-0.24649,0.414825,9.9609,-14.1571,-65.834,26.881195,88.8045,125.5212,NaN,0.0,25.728,,18 / 32,121512,2021-06-14 12:02:38:014
-0.15741,0.050247,11.336731,-0.032181,1.081894,-1.29776,12.3337,-10.0586,-67.1158,26.881195,88.8045,125.5212,NaN,0.0,25.728,,18 / 32,122013,2021-06-14 12:02:38:515
-0.439926,2.54979,8.650436,0.127441,0.059418,-0.564331,18.9316,-18.4647,-66.0828,26.881195,88.8045,125.5212,NaN,0.0,25.728,,17 / 32,122512,2021-06-14 12:02:39:014
-1.182129,3.090881,9.110123,0.140671,-0.093185,0.230728,17.3477,-16.3025,-62.6694,26.881195,88.8045,125.5212,NaN,0.0,25.728,,17 / 32,123013,2021-06-14 12:02:39:515
-0.588364,2.966385,8.434952,0.164185,0.148453,-0.058243,17.6117,-18.9499,-61.6745,26.881195,88.8045,125.5212,NaN,0.0,25.728,,17 / 32,123512,2021-06-14 12:02:40:014
-1.148605,3.761261,9.124481,0.555588,0.194702,-0.399918,25.0,-25.4272,-49.1791,26.881195,88.8045,125.5212,NaN,0.0,25.728,,17 / 32,124013,2021-06-14 12:02:40:515
-2.542038,5.097229,8.693527,0.387177,-0.961822,-0.499069,34.7595,-11.2,-41.2445,26.881195,88.8045,125.5212,NaN,0.0,25.728,,17 / 32,124513,2021-06-14 12:02:41:015
-0.483017,6.016602,7.587403,0.133911,-0.881302,-1.716675,14.7064,3.4256,-55.2826,26.881195,88.8045,125.5212,NaN,0.0,25.728,,17 / 32,125012,2021-06-14 12:02:41:514
-1.598724,4.565705,7.616135,-0.024277,-0.136337,-0.83667,-29.3518,-0.7889,-42.5186,26.881195,88.8045,125.5212,NaN,0.0,25.728,,17 / 32,125513,2021-06-14 12:02:42:015
0.417191,3.986313,8.54509,0.102585,-0.751877,-0.378799,-33.5739,-0.7996,-34.6466,26.881195,88.8045,125.5212,NaN,0.0,25.728,,17 / 32,126013,2021-06-14 12:02:42:515
1.341354,5.753235,8.908997,-0.103287,-0.387283,-0.601791,-36.7386,-5.8624,-24.7345,26.881195,88.8045,125.5212,NaN,0.0,25.728,,17 / 32,126513,2021-06-14 12:02:43:015
2.82576,3.876175,6.988861,0.558075,0.597992,1.365753,-33.3099,0.4044,-28.7262,26.881195,88.8045,125.5212,NaN,0.0,25.728,,17 / 32,127013,2021-06-14 12:02:43:515
0.92955,3.943222,7.434174,-0.101242,0.458801,0.317719,-26.7151,5.7175,-36.0565,26.881195,88.8045,125.5212,NaN,0.0,25.728,,16 / 32,127513,2021-06-14 12:02:44:015
2.844925,4.498673,8.037522,0.204224,0.516769,0.313538,-23.8144,14.148,-40.5014,26.881195,88.8045,125.5212,NaN,0.0,25.728,,16 / 32,128013,2021-06-14 12:02:44:515
0.9104,3.660706,7.620926,-0.540848,0.314987,-1.164337,-29.6173,7.8751,-37.9349,26.881195,88.8045,125.5212,NaN,0.0,25.728,,17 / 32,128512,2021-06-14 12:02:45:014
-2.848495,3.02385,8.300873,0.886261,0.277084,-0.16832,-30.4077,-0.7919,-42.7017,26.881195,88.8045,125.5212,NaN,0.0,25.728,,17 / 32,129013,2021-06-14 12:02:45:515
-2.259521,6.236862,7.151657,0.507919,0.281525,0.356689,-26.9775,-1.5045,-47.554,26.881195,88.8045,125.5212,NaN,0.0,25.728,,18 / 32,129512,2021-06-14 12:02:46:014
-2.053619,3.445221,8.525925,-0.544128,0.536743,0.830383,-22.2305,13.913,-47.7798,26.881195,88.8045,125.5212,NaN,0.0,25.728,,18 / 32,130012,2021-06-14 12:02:46:514
-2.661743,4.618378,9.550644,-0.068924,1.287308,1.75795,11.5387,19.7815,-51.9836,26.881195,88.8045,125.5212,NaN,0.0,25.728,,17 / 32,130512,2021-06-14 12:02:47:014
-3.743927,2.664719,8.305664,0.134796,0.180054,0.468094,38.7131,15.0436,-31.2653,26.881195,88.8045,125.5212,NaN,0.0,25.728,,17 / 32,131019,2021-06-14 12:02:47:521
-1.455063,2.956802,7.807678,0.921677,0.386536,0.584656,41.0904,-3.7216,-36.3266,26.881195,88.8045,125.5212,NaN,0.0,25.728,,18 / 32,131513,2021-06-14 12:02:48:015
-1.483795,1.845902,11.600082,-0.599869,0.566391,0.498459,37.3978,-5.899,-39.1388,26.881195,88.8045,125.5212,NaN,0.0,25.728,,18 / 32,132013,2021-06-14 12:02:48:515
-6.93779,2.415711,4.891541,-0.643372,0.825256,-0.348511,46.1044,-8.522,-13.8931,26.881195,88.8045,125.5212,NaN,0.0,25.728,,19 / 32,132513,2021-06-14 12:02:49:015
-2.369659,1.50592,5.217148,1.188263,0.54863,-0.374451,37.9257,-16.246,-35.2936,26.881195,88.8045,125.5212,NaN,0.0,25.728,,19 / 32,133013,2021-06-14 12:02:49:515
-2.484573,3.354248,12.442841,-0.041763,-0.17308,-0.413147,38.4522,-6.1356,-38.4079,26.881195,88.8045,125.5212,NaN,0.0,25.728,,20 / 32,133513,2021-06-14 12:02:50:015
-1.881241,2.92807,8.841965,-0.075317,-0.12204,0.287262,38.9801,-7.8201,-37.0224,26.881195,88.8045,125.5212,NaN,0.0,25.728,,20 / 32,134014,2021-06-14 12:02:50:516
-0.602737,2.477966,8.482834,-0.587891,-0.221558,-0.248749,35.5515,-9.9945,-41.8137,26.881195,88.8045,125.5212,NaN,0.0,25.728,,20 / 32,134512,2021-06-14 12:02:51:014
-1.230011,5.571274,8.430161,-0.084106,-0.129501,-0.213684,34.2316,-6.3889,-42.1402,26.881195,88.8045,125.5212,NaN,0.0,25.728,,20 / 32,135013,2021-06-14 12:02:51:515
-3.595489,2.980744,6.299317,-0.043808,0.602081,0.166718,37.1338,-4.2145,-34.9091,26.881195,88.8045,125.5212,NaN,0.0,25.728,,19 / 32,135513,2021-06-14 12:02:52:015
0.948715,4.891327,11.408554,-0.313492,-0.787567,0.099335,37.9257,-10.2295,-35.2859,26.881195,88.8045,125.5212,NaN,0.0,25.728,,19 / 32,136013,2021-06-14 12:02:52:515
-0.674561,4.690201,8.645645,-0.132492,-0.377792,-0.422562,36.6043,-1.5686,-36.4548,26.881195,88.8045,125.5212,NaN,0.0,25.728,,18 / 32,136513,2021-06-14 12:02:53:015
-2.441482,3.464371,7.055893,0.270279,1.278427,0.787766,36.0764,3.244,-36.8439,26.881195,88.8045,125.5212,NaN,0.0,25.728,,18 / 32,137014,2021-06-14 12:02:53:516
-7.857162,8.032517,4.134964,0.348831,0.309921,0.045364,43.4647,1.8204,-8.9905,26.881195,88.8045,125.5212,NaN,0.0,25.728,,16 / 32,137512,2021-06-14 12:02:54:014
-1.603516,4.709366,9.196304,0.285538,-0.082184,-0.084427,39.5081,-6.6147,-33.0811,26.881195,88.8045,125.5212,NaN,0.0,25.728,,16 / 32,138012,2021-06-14 12:02:54:514
-3.298599,2.664719,5.648102,0.039642,0.203308,0.680252,40.8279,-12.6282,-30.835,26.881195,88.8045,125.5212,NaN,0.0,25.728,,17 / 32,138514,2021-06-14 12:02:55:016
-0.104736,4.66626,12.208206,0.792877,-1.358551,0.358643,24.2081,-25.6699,-34.5947,26.881195,88.8045,125.5212,NaN,0.0,25.728,,17 / 32,139014,2021-06-14 12:02:55:516
-1.507736,5.341431,6.936188,0.191879,-0.16713,0.102982,19.7235,-26.886,-33.6548,26.881195,88.8045,125.5212,NaN,0.0,25.728,,15 / 32,139515,2021-06-14 12:02:56:017
-3.389587,3.311142,9.014343,-0.633255,-1.40506,-0.234985,17.3477,-18.2281,-37.5397,26.881195,88.8045,125.5212,NaN,0.0,25.728,,15 / 32,140013,2021-06-14 12:02:56:515
-2.508514,3.919281,7.673599,-0.409637,1.241592,1.555908,21.8353,-31.9336,-25.8621,26.881195,88.8045,125.5212,NaN,0.0,25.728,,16 / 32,140513,2021-06-14 12:02:57:015
-1.230011,4.225739,9.114899,-0.24736,0.441757,1.274323,-7.7118,-39.7171,-24.6536,26.881195,88.8045,125.5212,NaN,0.0,25.728,,16 / 32,141013,2021-06-14 12:02:57:515
-1.076782,2.952011,13.812332,0.286606,0.378632,1.470062,-29.3503,-18.5974,-26.3824,26.881195,88.8045,125.5212,NaN,0.0,25.728,,18 / 32,141512,2021-06-14 12:02:58:014
-0.794266,3.095673,8.008789,-0.326462,0.594269,0.332718,-28.8239,-10.8948,-33.6517,26.881195,88.8045,125.5212,NaN,0.0,25.728,,18 / 32,142013,2021-06-14 12:02:58:515
0.982224,3.368607,8.329605,0.252243,-0.379471,-0.218124,-36.4746,-5.3802,-28.3127,26.881195,88.8045,125.5212,NaN,0.0,25.728,,17 / 32,142513,2021-06-14 12:02:59:015
1.547257,4.80513,10.340729,-0.383102,0.1828,0.28717,-36.2122,-2.9739,-31.1996,26.881195,88.8045,125.5212,NaN,0.0,25.728,,17 / 32,143013,2021-06-14 12:02:59:515
-1.589142,3.239319,6.131729,0.010696,0.46936,0.79628,-29.0894,3.5446,-41.1713,26.881195,88.8045,125.5212,NaN,0.0,25.728,,17 / 31,143513,2021-06-14 12:03:00:015
1.336578,2.487549,8.109345,0.429794,0.166122,-0.647232,-26.1871,8.847,-45.0943,26.881195,88.8045,125.5212,NaN,0.0,25.728,,17 / 31,144012,2021-06-14 12:03:00:514
-4.146149,1.587326,12.639175,0.145279,0.877441,0.176926,-27.5055,0.4196,-42.3981,26.881195,88.8045,125.5212,NaN,0.0,25.728,,17 / 32,144514,2021-06-14 12:03:01:016
-3.097488,5.384522,9.900208,-0.688477,0.540024,0.193695,-27.504,-15.2237,-45.3567,26.881195,88.8045,125.5212,NaN,0.0,25.728,,17 / 32,145015,2021-06-14 12:03:01:517
-1.689697,2.521057,4.398331,0.883591,-0.522675,-0.390686,-23.0179,-14.9704,-53.7292,26.881195,88.8045,125.5212,NaN,0.0,25.728,,17 / 32,145514,2021-06-14 12:03:02:016
-4.768646,4.594437,11.461227,-0.585052,1.277985,-0.302719,-15.3671,-17.3553,-58.0719,26.881195,88.8045,125.5212,NaN,0.0,25.728,,17 / 32,146012,2021-06-14 12:03:02:514
-4.227554,3.842667,9.464462,-0.384171,1.016815,0.733963,-14.5767,-9.6527,-59.2209,26.881195,88.8045,125.5212,NaN,0.0,25.728,,17 / 32,146512,2021-06-14 12:03:03:014
-0.042496,1.769287,5.724716,0.949722,-0.228119,-0.435516,-26.1841,-12.0911,-49.1928,26.881195,88.8045,125.5212,NaN,0.0,25.728,,17 / 32,147012,2021-06-14 12:03:03:514
-0.463867,5.116379,11.121246,-0.020905,-0.434158,-0.465698,-27.7664,-16.4276,-44.6945,26.881195,88.8045,125.5212,NaN,0.0,25.728,,16 / 32,147513,2021-06-14 12:03:04:015
-2.72879,3.445221,5.4422,-0.469467,0.221237,0.218735,-25.1266,-26.0468,-37.5671,26.881195,88.8045,125.5212,NaN,0.0,25.728,,16 / 32,148012,2021-06-14 12:03:04:514
0.005402,3.143555,11.106888,0.655365,-0.227142,-0.450607,-24.8642,-26.0468,-41.571,26.881195,88.8045,125.5212,NaN,0.0,25.728,,16 / 32,148512,2021-06-14 12:03:05:014
0.273544,4.125183,9.938507,-0.222061,-0.487869,-1.120209,-21.1685,-38.0692,-31.8314,26.881195,88.8045,125.5212,NaN,0.0,25.728,,16 / 32,149014,2021-06-14 12:03:05:516
-2.015305,4.273621,8.080612,0.19899,-0.340683,-0.639252,10.4919,-45.4437,-27.6108,26.881195,88.8045,125.5212,NaN,0.0,25.728,,17 / 32,149516,2021-06-14 12:03:06:018
0.254395,2.803574,9.914566,0.059433,-0.809936,-0.903076,20.5185,-43.4906,-30.2399,26.881195,88.8045,125.5212,NaN,0.0,25.728,,17 / 32,150014,2021-06-14 12:03:06:516
-1.263534,5.935196,8.731827,-0.023926,0.034561,-0.237106,30.014,-30.2261,-42.9474,26.881195,88.8045,125.5212,NaN,0.0,25.728,,16 / 32,150513,2021-06-14 12:03:07:015
-1.469437,2.257706,9.842743,-0.114639,1.248596,0.956604,22.8912,-39.8727,-42.5796,26.881195,88.8045,125.5212,NaN,0.0,25.728,,16 / 32,151013,2021-06-14 12:03:07:515
-1.043259,1.802795,8.458893,-0.536133,-0.07605,0.334045,11.8118,-45.6802,-43.5425,26.881195,88.8045,125.5212,NaN,0.0,25.728,,15 / 32,151513,2021-06-14 12:03:08:015
-2.388809,4.915268,12.088501,-0.270798,0.237213,-0.025208,16.8243,-44.223,-42.9123,26.881195,88.8045,125.5212,NaN,0.0,25.728,,15 / 32,152013,2021-06-14 12:03:08:515
-1.598724,4.07251,6.883515,-0.290421,0.623108,0.659927,1.2589,-49.8001,-31.5323,26.881195,88.8045,125.5212,NaN,0.0,25.728,,15 / 32,152513,2021-06-14 12:03:09:015
1.44191,3.861817,8.770142,0.241776,-0.338547,-0.981552,1.2589,-49.3195,-31.6132,26.881195,88.8045,125.5212,NaN,0.0,25.728,,15 / 32,153013,2021-06-14 12:03:09:515
-1.18692,3.517044,8.750992,0.802551,-0.100739,0.474487,5.7434,-48.1033,-31.0333,26.881195,88.8045,125.5212,NaN,0.0,25.728,,15 / 32,153512,2021-06-14 12:03:10:014
-1.292267,5.997437,8.712677,-0.07222,-0.037262,0.099518,0.9949,-49.0799,-21.5729,26.881195,88.8045,125.5212,NaN,0.0,25.728,,15 / 32,154013,2021-06-14 12:03:10:515
-0.540482,5.758026,8.099762,-0.356552,0.411575,-0.183762,1.7868,-48.114,-24.6338,26.881195,88.8045,125.5212,NaN,0.0,25.728,,16 / 32,154513,2021-06-14 12:03:11:015
-2.561188,4.024613,7.932175,0.120773,0.195496,0.64325,-0.0595,-49.0829,-22.7692,26.881195,88.8045,125.5212,NaN,0.0,25.728,,16 / 32,155012,2021-06-14 12:03:11:514
-0.023331,3.818726,10.053436,-0.404129,-0.154709,-0.125519,-13.5147,-50.8041,-23.8159,26.881195,88.8045,125.5212,NaN,0.0,25.728,,15 / 31,155513,2021-06-14 12:03:12:015
-2.551605,4.723725,8.36792,-0.103378,0.358841,0.718781,-26.7075,-45.787,-26.4481,26.881195,88.8045,125.5212,NaN,0.0,25.728,,15 / 31,156014,2021-06-14 12:03:12:516
0.153839,3.995896,8.70311,-0.343948,0.713394,0.505737,-34.6252,-26.0742,-32.1304,26.881195,88.8045,125.5212,NaN,0.0,25.728,,16 / 32,156513,2021-06-14 12:03:13:015
0.441147,4.378968,8.257782,0.302231,-0.207703,-0.352692,-33.8333,-26.0712,-27.9434,26.881195,88.8045,125.5212,NaN,0.0,25.728,,16 / 32,157012,2021-06-14 12:03:13:514
-0.243607,3.871384,9.248978,-0.031021,0.226837,0.88382,-33.8348,-18.6111,-34.7565,26.881195,88.8045,125.5212,NaN,0.0,25.728,,16 / 32,157512,2021-06-14 12:03:14:014
-0.37767,4.364594,8.875488,-0.14003,0.342773,0.951721,-33.0444,-11.1481,-39.4089,26.881195,88.8045,125.5212,NaN,0.0,25.728,,16 / 32,158012,2021-06-14 12:03:14:514
-1.589142,3.722946,7.328827,-0.23262,0.209076,-0.475998,-33.3084,-10.4263,-37.5504,26.881195,88.8045,125.5212,NaN,0.0,25.728,,17 / 32,158512,2021-06-14 12:03:15:014
-1.095932,3.473953,6.98407,0.525223,0.564346,1.335037,-29.0878,-4.3976,-43.895,26.881195,88.8045,125.5212,NaN,0.0,25.728,,17 / 32,159012,2021-06-14 12:03:15:514
-0.056854,5.734085,9.464462,-0.094589,0.257645,-0.16423,-18.8004,10.0708,-56.6666,26.881195,88.8045,125.5212,NaN,0.0,25.728,,18 / 32,159515,2021-06-14 12:03:16:017
-3.269867,3.6176,6.744644,-0.102493,-0.051559,-1.760254,-21.1746,0.679,-57.5378,26.881195,88.8045,125.5212,NaN,0.0,25.728,,18 / 32,160012,2021-06-14 12:03:16:514
-3.298599,4.522614,7.094193,0.40654,-0.027145,-0.591843,-19.3253,-10.6277,-57.3547,26.881195,88.8045,125.5212,NaN,0.0,25.728,,18 / 32,160512,2021-06-14 12:03:17:014
0.024551,4.13475,8.013565,0.054459,-0.747345,-1.274689,-33.3069,-22.7005,-33.9828,26.881195,88.8045,125.5212,NaN,0.0,25.728,,18 / 32,161012,2021-06-14 12:03:17:514
-0.818207,5.710144,8.181168,0.044876,-0.830704,-1.251419,-27.5009,-35.4401,-27.8061,26.881195,88.8045,125.5212,NaN,0.0,25.728,,18 / 32,161513,2021-06-14 12:03:18:015
-1.977005,6.054901,7.860337,0.33667,-0.465149,-0.516296,-9.0302,-46.701,-20.1752,26.881195,88.8045,125.5212,NaN,0.0,25.728,,18 / 32,162013,2021-06-14 12:03:18:515
-2.230789,6.921601,6.691971,-0.023483,-0.371841,-0.437729,2.0508,-47.8729,-17.0334,26.881195,88.8045,125.5212,NaN,0.0,25.728,,18 / 32,162513,2021-06-14 12:03:19:015
-2.805405,6.347,6.466919,-0.017441,-0.07579,-0.246262,11.8118,-45.6802,-16.7099,26.881195,88.8045,125.5212,NaN,0.0,25.728,,18 / 32,163013,2021-06-14 12:03:19:515
-4.304168,7.836182,4.561127,-0.345551,0.539841,-0.018463,13.6581,-43.9911,-21.7331,26.881195,88.8045,125.5212,NaN,0.0,25.728,,17 / 32,163513,2021-06-14 12:03:20:015
-1.593933,6.217713,11.681488,1.086701,-0.778946,-0.260193,12.8662,-44.7144,-27.8259,26.881195,88.8045,125.5212,NaN,0.0,25.728,,17 / 32,164014,2021-06-14 12:03:20:516
-2.752731,10.086731,-2.516128,1.462921,1.996765,-0.036926,-6.6605,-18.7759,30.7632,26.881195,88.8045,125.5212,NaN,0.0,25.728,,17 / 32,164513,2021-06-14 12:03:21:015
1.283905,5.322281,-5.518463,-0.293701,2.206101,-0.032043,-41.4871,-7.8018,14.7583,26.881195,88.8045,125.5212,NaN,0.0,25.728,,17 / 32,165012,2021-06-14 12:03:21:514
5.272644,8.415588,3.48375,-1.104996,1.374481,-0.174622,-37.2665,-7.7896,-34.1232,26.881195,88.8045,125.5212,NaN,0.0,25.728,,19 / 32,165512,2021-06-14 12:03:22:014
6.26384,6.074051,3.847656,-0.491928,-0.612503,0.33902,-36.4777,10.5042,-33.4946,26.881195,88.8045,125.5212,NaN,0.0,25.728,,19 / 32,166012,2021-06-14 12:03:22:514
7.920624,3.234528,6.33284,-0.19632,0.482147,-0.237915,-34.6313,15.5624,-34.0179,26.881195,88.8045,125.5212,NaN,0.0,25.728,,20 / 32,166513,2021-06-14 12:03:23:015
6.139344,4.671051,4.431839,-0.67897,-0.386856,-0.128723,-38.0615,15.3122,-25.4608,26.881195,88.8045,125.5212,NaN,0.0,25.728,,20 / 32,167013,2021-06-14 12:03:23:515
8.107376,2.597672,3.225174,-0.835205,-0.49054,-0.064713,-40.1718,19.8792,-5.8334,26.881195,88.8045,125.5212,NaN,0.0,25.728,,20 / 32,167513,2021-06-14 12:03:24:015
7.259827,-0.026367,4.139755,-1.101883,0.055145,-0.10582,-40.6998,18.6752,1.8707,26.881195,88.8045,125.5212,NaN,0.0,25.728,,20 / 32,168014,2021-06-14 12:03:24:516
6.747467,-0.90744,5.001663,-0.376083,0.328918,-0.831528,-42.2806,-1.5457,11.5509,26.881195,88.8045,125.5212,NaN,0.0,25.728,,19 / 32,168512,2021-06-14 12:03:25:014
5.440232,1.826737,9.732605,0.657135,1.77768,-0.130325,-43.5989,-5.6412,-11.7905,26.881195,88.8045,125.5212,NaN,0.0,25.728,,19 / 32,169013,2021-06-14 12:03:25:515
-1.244385,5.552124,7.22348,-0.842667,0.790192,-1.40979,-28.5568,-27.2598,-29.3549,26.881195,88.8045,125.5212,NaN,0.0,25.728,,19 / 32,169512,2021-06-14 12:03:26:014
0.723648,5.98787,7.438965,1.797867,-1.997086,-0.155792,-17.7368,-42.6331,-8.7021,26.881195,88.8045,125.5212,NaN,0.0,25.728,,19 / 32,170013,2021-06-14 12:03:26:515
-1.115097,8.827393,4.94899,-0.290955,0.267319,-0.082474,-7.9758,-44.5312,-2.1255,26.881195,88.8045,125.5212,NaN,0.0,25.728,,20 / 32,170512,2021-06-14 12:03:27:014
-0.281906,7.778733,4.858017,-0.394821,-0.031143,0.011536,-6.1295,-45.0073,-2.2308,26.881195,88.8045,125.5212,NaN,0.0,25.728,,20 / 32,171013,2021-06-14 12:03:27:515
2.054825,5.777176,7.410233,-0.142258,-1.096222,-0.449188,4.689,-45.9412,-13.3514,26.881195,88.8045,125.5212,NaN,0.0,25.728,,20 / 32,171513,2021-06-14 12:03:28:015
-0.645828,6.653458,7.769364,-0.351135,-0.014709,-0.572144,16.5604,-39.65,-21.4447,26.881195,88.8045,125.5212,NaN,0.0,25.728,,20 / 32,172012,2021-06-14 12:03:28:514
-0.023331,6.466706,6.936188,-0.284744,-0.41214,-0.260376,18.1427,-39.4058,-24.2477,26.881195,88.8045,125.5212,NaN,0.0,25.728,,20 / 32,172512,2021-06-14 12:03:29:014
1.451492,5.322281,7.113358,-0.173141,-0.70723,-0.865265,25.2655,-34.3307,-29.9271,26.881195,88.8045,125.5212,NaN,0.0,25.728,,20 / 32,173013,2021-06-14 12:03:29:515
1.078003,6.998215,6.553116,0.148026,-0.093994,-0.497299,29.7485,-24.9329,-38.8138,26.881195,88.8045,125.5212,NaN,0.0,25.728,,20 / 32,173512,2021-06-14 12:03:30:014
-1.445496,5.485077,7.630493,-0.222412,-0.676422,-0.57312,36.8713,-18.8965,-35.5423,26.881195,88.8045,125.5212,NaN,0.0,25.728,,20 / 32,174012,2021-06-14 12:03:30:514
-0.387253,5.523392,5.93541,-0.198532,-0.501266,-0.286118,36.8713,-14.8041,-40.2756,26.881195,88.8045,125.5212,NaN,0.0,25.728,,20 / 32,174513,2021-06-14 12:03:31:015
-1.014542,6.85936,7.204331,0.292908,-0.021545,-0.108124,35.0235,-7.5897,-45.8511,26.881195,88.8045,125.5212,NaN,0.0,25.728,,20 / 32,175013,2021-06-14 12:03:31:515
-1.91954,6.414032,7.371933,-0.005188,0.140732,0.337326,41.8823,-10.4584,-41.1392,26.881195,88.8045,125.5212,NaN,0.0,25.728,,20 / 32,175512,2021-06-14 12:03:32:014
-1.450287,6.064484,7.611344,0.072845,-0.504196,-0.392288,40.5624,-4.686,-46.8887,26.881195,88.8045,125.5212,NaN,0.0,25.728,,20 / 32,176012,2021-06-14 12:03:32:514
-0.899612,6.663025,5.399109,0.360825,-0.148666,-0.22673,32.3837,-0.8575,-53.511,26.881195,88.8045,125.5212,NaN,0.0,25.728,,20 / 32,176512,2021-06-14 12:03:33:014
-1.991363,6.447556,7.31926,-0.042297,-0.285553,-0.021652,29.4815,-0.3845,-52.5772,26.881195,88.8045,125.5212,NaN,0.0,25.728,,20 / 32,177012,2021-06-14 12:03:33:514
-1.258743,7.515366,5.4422,0.722031,-0.739716,-0.321808,21.5668,-4.0161,-56.3889,26.881195,88.8045,125.5212,NaN,0.0,25.728,,20 / 32,177513,2021-06-14 12:03:34:015
-2.111084,7.606339,6.294541,-0.064041,-0.080841,-0.462585,16.0263,0.7813,-58.6624,26.881195,88.8045,125.5212,NaN,0.0,25.728,,20 / 32,178013,2021-06-14 12:03:34:515
-3.020874,7.386078,6.007233,0.057037,-0.254486,-0.155792,12.8601,-2.597,-61.1816,26.881195,88.8045,125.5212,NaN,0.0,25.728,,20 / 32,178512,2021-06-14 12:03:35:014
-2.407959,8.477829,5.490082,0.078781,-0.399094,-0.182877,13.3881,-2.1149,-61.6775,26.881195,88.8045,125.5212,NaN,0.0,25.728,,20 / 32,179013,2021-06-14 12:03:35:515
-0.205292,6.356568,6.605789,-0.822693,-0.585068,-0.752441,-2.9709,3.8574,-64.5142,26.881195,88.8045,125.5212,NaN,0.0,25.728,,19 / 32,179513,2021-06-14 12:03:36:015
-2.685684,6.447556,8.377487,0.003159,0.70079,0.142563,-0.0687,6.9946,-63.5193,26.881195,88.8045,125.5212,NaN,0.0,25.728,,19 / 32,180013,2021-06-14 12:03:36:515
-2.192489,5.647888,7.060684,-0.130447,0.081879,0.166718,7.3196,4.6082,-62.3383,26.881195,88.8045,125.5212,NaN,0.0,25.728,,19 / 32,180513,2021-06-14 12:03:37:015
0.55127,3.344666,9.10054,0.518387,-1.895431,0.794418,-30.9372,6.9092,-52.1805,26.881195,88.8045,125.5212,NaN,0.0,25.728,,19 / 32,181012,2021-06-14 12:03:37:514
9.797684,1.630417,4.0392,0.171295,0.28392,-0.159439,-42.8116,23.9639,-31.7825,26.881195,88.8045,125.5212,NaN,0.0,25.728,,19 / 32,181513,2021-06-14 12:03:38:015
7.216736,5.609589,8.281723,0.357269,0.867859,-0.90628,-28.5629,11.2473,-52.9968,26.881195,88.8045,125.5212,NaN,0.0,25.728,,19 / 32,182013,2021-06-14 12:03:38:515
1.216858,7.922379,4.360016,0.780792,-1.545135,-0.22583,-17.4789,-11.3449,-62.9883,26.881195,88.8045,125.5212,NaN,0.0,25.728,,17 / 32,182512,2021-06-14 12:03:39:014
-0.736801,8.616699,6.567475,-0.226501,0.175613,-0.424866,-28.8223,-11.8576,-51.2115,26.881195,88.8045,125.5212,NaN,0.0,25.728,,17 / 32,183013,2021-06-14 12:03:39:515
-0.219666,5.389313,8.44931,-1.292206,0.611313,-0.03418,-25.1312,-3.183,-55.0522,26.881195,88.8045,125.5212,NaN,0.0,25.728,,17 / 32,183513,2021-06-14 12:03:40:015
0.637466,4.762039,7.611344,-0.168884,-0.584183,-0.456467,-37.793,-8.754,-36.586,26.881195,88.8045,125.5212,NaN,0.0,25.728,,17 / 32,184013,2021-06-14 12:03:40:515
-0.281906,5.600006,8.07103,0.039108,1.080566,1.162552,-31.99,-7.2937,-43.4113,26.881195,88.8045,125.5212,NaN,0.0,25.728,,17 / 32,184513,2021-06-14 12:03:41:015
-0.799057,5.006241,7.40065,-0.070175,1.150238,1.167175,-3.7613,0.0046,-60.9711,26.881195,88.8045,125.5212,NaN,0.0,25.728,,17 / 32,185013,2021-06-14 12:03:41:515
-0.11911,6.56247,8.755768,0.055801,-0.032379,0.473068,7.0557,-1.651,-58.3023,26.881195,88.8045,125.5212,NaN,0.0,25.728,,17 / 32,185514,2021-06-14 12:03:42:016
-0.066437,5.681412,7.166031,0.078781,0.553696,0.398666,11.2778,-3.5645,-56.7398,26.881195,88.8045,125.5212,NaN,0.0,25.728,,17 / 32,186013,2021-06-14 12:03:42:515
-0.468658,5.695771,7.980057,0.298325,1.085968,0.847855,23.6786,-14.119,-47.7524,26.881195,88.8045,125.5212,NaN,0.0,25.728,,18 / 32,186512,2021-06-14 12:03:43:014
-1.732803,5.844208,7.544312,-0.266174,0.40358,0.46286,29.7485,-20.842,-40.004,26.881195,88.8045,125.5212,NaN,0.0,25.728,,18 / 32,187012,2021-06-14 12:03:43:514
-0.123886,5.188202,7.745423,0.180161,-0.639496,-0.293579,26.8463,-21.8124,-41.3605,26.881195,88.8045,125.5212,NaN,0.0,25.728,,18 / 32,187513,2021-06-14 12:03:44:015
0.115524,4.594437,6.567475,0.214966,0.272293,0.099075,25.7904,-19.4077,-42.9581,26.881195,88.8045,125.5212,NaN,0.0,25.728,,18 / 32,188013,2021-06-14 12:03:44:515
-0.674561,6.988648,10.292847,0.452164,-0.050934,-0.124191,29.7485,-24.4507,-38.3881,26.881195,88.8045,125.5212,NaN,0.0,25.728,,17 / 32,188513,2021-06-14 12:03:45:015
-0.985809,5.911255,6.907456,0.057312,-0.130829,0.018112,30.2765,-23.7274,-40.4419,26.881195,88.8045,125.5212,NaN,0.0,25.728,,17 / 32,189012,2021-06-14 12:03:45:514
-0.243607,6.179398,9.866684,-0.305771,0.462967,0.25647,32.6508,-25.4059,-38.736,26.881195,88.8045,125.5212,NaN,0.0,25.728,,17 / 32,189513,2021-06-14 12:03:46:015
-0.166992,5.293549,5.940201,-0.081985,-0.023865,0.060181,31.3324,-26.8539,-38.7238,26.881195,88.8045,125.5212,NaN,0.0,25.728,,17 / 32,190013,2021-06-14 12:03:46:515
-1.790253,6.327835,9.229828,-0.336578,-0.110413,-0.151718,34.2346,-25.4013,-40.4846,26.881195,88.8045,125.5212,NaN,0.0,25.728,,17 / 32,190513,2021-06-14 12:03:47:015
-0.63147,5.820267,6.170044,0.240082,-0.159409,-0.108307,33.9706,-27.3285,-37.6785,26.881195,88.8045,125.5212,NaN,0.0,25.728,,17 / 32,191013,2021-06-14 12:03:47:515
-0.123886,7.122711,9.785278,-0.574844,0.130875,-0.084335,33.1787,-21.5546,-38.2736,26.881195,88.8045,125.5212,NaN,0.0,25.728,,17 / 32,191513,2021-06-14 12:03:48:015
0.163406,4.757248,7.242646,0.188339,-0.121155,0.321625,31.5949,-21.3181,-39.6027,26.881195,88.8045,125.5212,NaN,0.0,25.728,,17 / 32,192012,2021-06-14 12:03:48:514
-0.684128,6.768372,11.073364,0.122375,-0.469757,-0.316376,32.3868,-22.5189,-34.7076,26.881195,88.8045,125.5212,NaN,0.0,25.728,,16 / 32,192512,2021-06-14 12:03:49:014
-1.071991,5.705353,7.371933,0.11084,-0.031937,-0.07103,32.6508,-19.6304,-35.1425,26.881195,88.8045,125.5212,NaN,0.0,25.728,,16 / 32,193013,2021-06-14 12:03:49:515
-0.47345,7.031739,10.786057,-0.688644,0.026031,-0.038712,31.5949,-17.9474,-37.1262,26.881195,88.8045,125.5212,NaN,0.0,25.728,,13 / 32,193513,2021-06-14 12:03:50:015
0.656616,5.049332,7.745423,-0.143585,-0.129578,0.285141,29.483,-14.8254,-39.5355,26.881195,88.8045,125.5212,NaN,0.0,25.728,,13 / 32,194013,2021-06-14 12:03:50:515
-1.292267,5.37973,7.49643,-0.735702,-0.473572,-0.154724,30.5389,-11.4532,-37.8891,26.881195,88.8045,125.5212,NaN,0.0,25.728,,12 / 32,194513,2021-06-14 12:03:51:015
-0.11911,5.710144,6.620148,0.096359,0.006683,-0.101562,26.5808,-8.8165,-41.5497,26.881195,88.8045,125.5212,NaN,0.0,25.728,,12 / 32,195013,2021-06-14 12:03:51:515
-0.530899,5.681412,7.73584,-0.426147,-0.202026,0.256378,27.6352,-7.8506,-41.5268,26.881195,88.8045,125.5212,NaN,0.0,25.728,,14 / 32,195512,2021-06-14 12:03:52:014
-0.004181,5.676621,6.035965,0.242401,0.07193,-0.630722,24.2065,-6.4163,-45.4025,26.881195,88.8045,125.5212,NaN,0.0,25.728,,14 / 32,196013,2021-06-14 12:03:52:515
-2.326553,5.983078,10.321579,-1.110413,-0.670197,-1.538162,10.2234,-7.1777,-44.6762,26.881195,88.8045,125.5212,NaN,0.0,25.728,,16 / 32,196512,2021-06-14 12:03:53:014
-2.302612,5.561692,8.257782,-0.002441,-0.326294,-1.017151,9.1675,-5.9769,-45.5673,26.881195,88.8045,125.5212,NaN,0.0,25.728,,16 / 32,197012,2021-06-14 12:03:53:514
1.140244,4.115601,8.296082,0.038315,-0.792007,-0.960434,8.1116,-2.1286,-49.4308,26.881195,88.8045,125.5212,NaN,0.0,25.728,,15 / 32,197513,2021-06-14 12:03:54:015
-0.574005,5.667038,8.171585,-0.016815,0.312943,-0.570358,-8.5114,6.9702,-51.3168,26.881195,88.8045,125.5212,NaN,0.0,25.728,,15 / 32,198013,2021-06-14 12:03:54:515
-1.574783,4.326294,7.438965,-0.320419,-0.361191,-0.651764,-19.5923,6.218,-50.592,26.881195,88.8045,125.5212,NaN,0.0,25.728,,16 / 32,198513,2021-06-14 12:03:55:015
-1.493378,3.090881,8.066239,-0.083847,-0.072418,-0.798508,-34.1019,-1.5228,-35.1242,26.881195,88.8045,125.5212,NaN,0.0,25.728,,16 / 32,199013,2021-06-14 12:03:55:515
-0.856522,4.498673,9.292068,0.059784,0.264557,0.314163,-38.0585,-5.3848,-30.1071,26.881195,88.8045,125.5212,NaN,0.0,25.728,,18 / 32,199513,2021-06-14 12:03:56:015
-0.396835,6.097992,12.184265,0.234497,0.187607,0.190857,-37.0026,-3.9383,-32.1884,26.881195,88.8045,125.5212,NaN,0.0,25.728,,18 / 32,200013,2021-06-14 12:03:56:515
-1.325775,4.455582,9.406998,-0.179184,-0.526398,-0.360855,-36.2106,-8.0276,-32.3807,26.881195,88.8045,125.5212,NaN,0.0,25.728,,18 / 32,200513,2021-06-14 12:03:57:015
-2.230789,7.247208,8.377487,0.254379,0.435806,0.482834,-34.8907,-11.3937,-29.5639,26.881195,88.8045,125.5212,NaN,0.0,25.728,,18 / 32,201012,2021-06-14 12:03:57:514
-0.660187,5.149887,8.243408,0.256424,0.702835,0.61377,-35.6827,-10.9146,-26.7441,26.881195,88.8045,125.5212,NaN,0.0,25.728,,18 / 32,201513,2021-06-14 12:03:58:015
-1.249161,5.623947,5.791748,0.388077,0.370911,0.084961,-33.5724,-11.3892,-31.3599,26.881195,88.8045,125.5212,NaN,0.0,25.728,,18 / 32,202013,2021-06-14 12:03:58:515
-0.564423,6.102783,7.257004,0.175018,-0.364304,0.279541,-29.8782,-15.2298,-30.5817,26.881195,88.8045,125.5212,NaN,0.0,25.728,,17 / 32,202513,2021-06-14 12:03:59:015
-0.425568,6.390091,4.982514,0.057663,0.018051,-0.048294,-30.9326,-16.9174,-28.9642,26.881195,88.8045,125.5212,NaN,0.0,25.728,,17 / 32,203014,2021-06-14 12:03:59:516
0.014969,5.145111,8.861115,-0.063873,0.058701,0.14949,-30.6702,-10.6598,-35.0265,26.881195,88.8045,125.5212,NaN,0.0,25.728,,18 / 32,203512,2021-06-14 12:04:00:014
0.086792,5.690979,6.979279,0.263428,-0.013641,-0.348343,-29.6143,-10.8978,-37.3337,26.881195,88.8045,125.5212,NaN,0.0,25.728,,18 / 32,204013,2021-06-14 12:04:00:515
-1.737579,5.758026,6.567475,0.255707,-0.036636,0.094452,-29.8782,-16.1926,-36.496,26.881195,88.8045,125.5212,NaN,0.0,25.728,,18 / 32,204513,2021-06-14 12:04:01:015
-0.042496,8.731613,9.354324,0.320068,-0.0354,-0.378708,-30.9326,-16.9174,-36.5585,26.881195,88.8045,125.5212,NaN,0.0,25.728,,18 / 32,205012,2021-06-14 12:04:01:514
1.030106,4.321503,4.331284,0.188416,0.016098,0.284424,-35.9467,-14.7659,-31.7169,26.881195,88.8045,125.5212,NaN,0.0,25.728,,17 / 32,205513,2021-06-14 12:04:02:015
0.331009,5.671829,4.0392,0.461487,-0.4189,-0.092941,-39.1113,-14.534,-24.2065,26.881195,88.8045,125.5212,NaN,0.0,25.728,,17 / 32,206013,2021-06-14 12:04:02:515
1.10672,8.870483,8.123703,-1.099136,0.692978,-0.467484,-39.6393,-18.3853,-21.6309,26.881195,88.8045,125.5212,NaN,0.0,25.728,,17 / 32,206513,2021-06-14 12:04:03:015
1.034897,4.9823,5.394318,0.503922,0.03421,0.249008,-37.5275,-21.9894,-26.7364,26.881195,88.8045,125.5212,NaN,0.0,25.728,,17 / 32,207012,2021-06-14 12:04:03:514
-1.129456,7.050888,5.24588,-0.47612,0.280106,-0.623535,-29.3488,-24.855,-31.4133,26.881195,88.8045,125.5212,NaN,0.0,25.728,,19 / 31,207513,2021-06-14 12:04:04:015
-0.607513,2.664719,4.843643,-0.213455,-0.865601,-0.791046,-29.6127,-26.5411,-26.622,26.881195,88.8045,125.5212,NaN,0.0,25.728,,19 / 31,208013,2021-06-14 12:04:04:515
-2.4319,1.821961,6.380722,1.141647,0.510727,0.254776,-23.2803,-24.8383,-37.4466,26.881195,88.8045,125.5212,NaN,0.0,25.728,,19 / 31,208513,2021-06-14 12:04:05:015
-1.086365,3.742111,10.853088,-0.904007,-0.564209,-0.872635,-25.6546,-26.2894,-35.0876,26.881195,88.8045,125.5212,NaN,0.0,25.728,,19 / 31,209012,2021-06-14 12:04:05:514
-0.971436,2.703018,7.975266,-0.137375,0.192215,-1.010315,-21.1685,-34.4604,-30.4092,26.881195,88.8045,125.5212,NaN,0.0,25.728,,19 / 31,209513,2021-06-14 12:04:06:015
-1.239593,3.73732,7.941742,1.098068,-0.692673,-0.697128,-4.0176,-44.0399,-21.2631,26.881195,88.8045,125.5212,NaN,0.0,25.728,,19 / 31,210013,2021-06-14 12:04:06:515
1.614304,3.876175,10.651978,-0.538086,0.210861,-0.083618,1.2573,-41.6183,-32.3914,26.881195,88.8045,125.5212,NaN,0.0,25.728,,19 / 31,210514,2021-06-14 12:04:07:016
2.121872,4.082077,6.759018,-0.457489,-1.193603,-0.740448,5.4794,-41.1255,-32.2449,26.881195,88.8045,125.5212,NaN,0.0,25.728,,19 / 31,211012,2021-06-14 12:04:07:514
0.733231,2.497116,8.411011,0.656067,1.751404,0.984924,3.3691,-44.9814,-19.8181,26.881195,88.8045,125.5212,NaN,0.0,25.728,,18 / 31,211513,2021-06-14 12:04:08:015
1.097153,5.638306,8.075821,-0.369507,-0.519913,-0.758026,-1.3794,-45.4758,-18.5379,26.881195,88.8045,125.5212,NaN,0.0,25.728,,18 / 31,212013,2021-06-14 12:04:08:515
0.024551,5.250458,8.252991,-0.121048,0.022568,-0.233734,14.4501,-40.86,-30.2185,26.881195,88.8045,125.5212,NaN,0.0,25.728,,17 / 31,212513,2021-06-14 12:04:09:015
-0.368103,4.656693,7.352768,0.862122,0.799332,0.505463,10.228,-44.0002,-19.2917,26.881195,88.8045,125.5212,NaN,0.0,25.728,,17 / 31,213012,2021-06-14 12:04:09:514
0.67099,5.202561,8.731827,0.076035,-0.405395,-0.448471,9.4376,-45.6863,-12.5656,26.881195,88.8045,125.5212,NaN,0.0,25.728,,17 / 31,213513,2021-06-14 12:04:10:015
-2.010529,5.729294,10.335953,-1.169617,-0.296829,-0.824966,22.3633,-38.4308,-24.6857,26.881195,88.8045,125.5212,NaN,0.0,25.728,,17 / 31,214013,2021-06-14 12:04:10:515
-1.071991,3.646332,8.693527,-0.379196,0.245667,0.48407,21.5729,-40.1184,-20.9991,26.881195,88.8045,125.5212,NaN,0.0,25.728,,16 / 31,214512,2021-06-14 12:04:11:014
-0.11911,4.019837,11.212219,0.712708,0.115784,-0.319397,20.517,-37.233,-25.7141,26.881195,88.8045,125.5212,NaN,0.0,25.728,,16 / 31,215013,2021-06-14 12:04:11:515
-1.924332,5.920822,8.94252,-0.271774,0.33638,0.663742,17.6147,-38.4445,-22.4747,26.881195,88.8045,125.5212,NaN,0.0,25.728,,16 / 31,215513,2021-06-14 12:04:12:015
-1.967422,4.651901,8.554657,-0.406891,0.40242,-0.019623,5.7434,-45.2164,-7.7194,26.881195,88.8045,125.5212,NaN,0.0,25.728,,16 / 31,216012,2021-06-14 12:04:12:514
-1.306625,4.920044,6.404663,-0.968628,0.232605,-0.446518,-14.8346,-43.8278,-11.5402,26.881195,88.8045,125.5212,NaN,0.0,25.728,,16 / 31,216513,2021-06-14 12:04:13:015
-0.990601,5.413254,11.786835,-0.415314,0.369843,-0.417679,-10.614,-43.335,-23.5443,26.881195,88.8045,125.5212,NaN,0.0,25.728,,16 / 31,217013,2021-06-14 12:04:13:515
-2.623443,3.900116,5.375168,0.160187,0.921829,0.129868,-10.878,-43.5776,-19.4992,26.881195,88.8045,125.5212,NaN,0.0,25.728,,15 / 31,217513,2021-06-14 12:04:14:015
-0.976227,3.880966,6.064698,0.639298,-0.47261,0.322067,-10.614,-45.0195,-16.6809,26.881195,88.8045,125.5212,NaN,0.0,25.728,,15 / 31,218012,2021-06-14 12:04:14:514
-0.329788,5.719712,9.919357,-0.592148,0.489151,0.106796,-13.2523,-43.5837,-21.9376,26.881195,88.8045,125.5212,NaN,0.0,25.728,,14 / 31,218513,2021-06-14 12:04:15:015
-1.36409,4.163483,7.936951,-0.375366,0.152985,-0.056198,-18.5287,-42.1539,-16.008,26.881195,88.8045,125.5212,NaN,0.0,25.728,,14 / 31,219013,2021-06-14 12:04:15:515
1.010956,4.096451,7.16124,1.07898,-0.710602,0.174347,-20.1126,-41.6763,-13.8321,26.881195,88.8045,125.5212,NaN,0.0,25.728,,15 / 31,219513,2021-06-14 12:04:16:015
2.203278,6.337418,8.794083,0.485535,0.038193,-0.093567,-21.167,-41.9205,-12.9639,26.881195,88.8045,125.5212,NaN,0.0,25.728,,15 / 31,220013,2021-06-14 12:04:16:515
0.043701,6.375733,6.778168,0.099121,-0.238159,-0.519592,-17.2104,-43.1137,-15.1123,26.881195,88.8045,125.5212,NaN,0.0,25.728,,16 / 31,220512,2021-06-14 12:04:17:014
-0.224442,4.972718,5.4805,0.279587,-0.005569,-0.963531,-2.4353,-46.6827,-17.5079,26.881195,88.8045,125.5212,NaN,0.0,25.728,,16 / 31,221013,2021-06-14 12:04:17:515
-0.597946,5.092438,7.491638,0.266006,0.490311,0.431793,-1.1154,-45.9564,-19.931,26.881195,88.8045,125.5212,NaN,0.0,25.728,,15 / 31,221512,2021-06-14 12:04:18:014
-0.143051,6.179398,7.936951,-0.225082,0.353073,0.215805,-8.7677,-44.0521,-19.0521,26.881195,88.8045,125.5212,NaN,0.0,25.728,,15 / 31,222013,2021-06-14 12:04:18:515
1.494583,4.680634,7.606552,0.374039,-0.932266,-0.565659,-1.3794,-46.6797,-13.7802,26.881195,88.8045,125.5212,NaN,0.0,25.728,,15 / 31,222513,2021-06-14 12:04:19:015
-1.268326,6.821045,9.13884,0.426514,0.53363,0.414124,3.1052,-47.3892,-20.4742,26.881195,88.8045,125.5212,NaN,0.0,25.728,,15 / 31,223013,2021-06-14 12:04:19:515
0.996597,5.274399,5.854004,-0.682785,0.218765,-0.102798,-6.6559,-48.378,-13.9114,26.881195,88.8045,125.5212,NaN,0.0,25.728,,15 / 31,223513,2021-06-14 12:04:20:015
-1.555618,4.244889,7.118134,0.981506,-0.125671,-0.562546,-1.6434,-50.531,-14.7034,26.881195,88.8045,125.5212,NaN,0.0,25.728,,15 / 31,224013,2021-06-14 12:04:20:515
-1.143829,5.226502,9.852325,-0.832458,0.846817,0.699966,0.4684,-51.4877,-24.8077,26.881195,88.8045,125.5212,NaN,0.0,25.728,,16 / 30,224513,2021-06-14 12:04:21:015
-1.253952,5.89209,6.725495,1.289368,-0.212051,1.204453,-5.6,-51.0239,-22.905,26.881195,88.8045,125.5212,NaN,0.0,25.728,,16 / 30,225013,2021-06-14 12:04:21:515
-1.325775,5.748444,7.477265,0.906143,-0.076141,-1.06607,7.3273,-49.7833,-27.4399,26.881195,88.8045,125.5212,NaN,0.0,25.728,,16 / 31,225513,2021-06-14 12:04:22:015
-0.305847,5.058914,9.627258,-0.153793,0.69812,-0.216156,-1.9073,-48.3658,-24.2233,26.881195,88.8045,125.5212,NaN,0.0,25.728,,16 / 31,226013,2021-06-14 12:04:22:515
-0.588364,3.416489,7.209122,0.86557,0.061981,-0.549591,5.4794,-47.6227,-27.6154,26.881195,88.8045,125.5212,NaN,0.0,25.728,,16 / 30,226513,2021-06-14 12:04:23:015
-1.464645,3.521835,9.009567,0.452698,-0.391113,-1.106903,22.6288,-41.7999,-26.1032,26.881195,88.8045,125.5212,NaN,0.0,25.728,,16 / 30,227012,2021-06-14 12:04:23:514
-1.388031,4.527405,8.037522,0.219757,-0.691162,-0.989548,37.4008,-25.3922,-30.3146,26.881195,88.8045,125.5212,NaN,0.0,25.728,,18 / 31,227513,2021-06-14 12:04:24:015
-1.656174,4.216156,9.253769,-0.312073,-0.18222,0.082733,42.4118,-17.4362,-29.7562,26.881195,88.8045,125.5212,NaN,0.0,25.728,,18 / 31,228012,2021-06-14 12:04:24:514
-1.613083,4.465149,9.062225,-0.212036,-0.352219,-0.550751,43.2022,-10.4553,-33.3145,26.881195,88.8045,125.5212,NaN,0.0,25.728,,18 / 31,228513,2021-06-14 12:04:25:015
-1.459854,3.335083,6.964905,-0.065201,-0.145386,-0.454697,41.0904,-5.6473,-40.0543,26.881195,88.8045,125.5212,NaN,0.0,25.728,,18 / 31,229012,2021-06-14 12:04:25:514
-1.742371,4.809922,9.028717,0.510834,0.013611,0.528107,40.0345,-2.2812,-41.3071,26.881195,88.8045,125.5212,NaN,0.0,25.728,,18 / 31,229513,2021-06-14 12:04:26:015
-0.69371,4.876953,6.658448,-0.278519,0.818054,0.509018,40.8279,-13.1088,-31.2607,26.881195,88.8045,125.5212,NaN,0.0,25.728,,18 / 31,230012,2021-06-14 12:04:26:514
-1.335358,3.636765,8.779724,0.547684,-0.242676,-0.296585,38.4537,-12.6343,-30.2353,26.881195,88.8045,125.5212,NaN,0.0,25.728,,17 / 31,230513,2021-06-14 12:04:27:015
-2.187698,5.676621,8.233841,0.021271,-0.121155,-0.265961,37.3978,-9.2682,-33.0063,26.881195,88.8045,125.5212,NaN,0.0,25.728,,17 / 31,231012,2021-06-14 12:04:27:514
-2.714416,5.102005,8.669586,0.093079,-0.12381,-0.354034,38.9801,-7.0969,-32.5867,26.881195,88.8045,125.5212,NaN,0.0,25.728,,17 / 31,231513,2021-06-14 12:04:28:015
-1.593933,5.073273,9.718246,-0.018768,-0.953827,-1.709137,27.3697,8.7555,-46.3699,26.881195,88.8045,125.5212,NaN,0.0,25.728,,17 / 31,232012,2021-06-14 12:04:28:514
-0.13826,2.674286,10.096527,-0.528595,-0.470291,-0.678131,7.8445,21.6965,-51.4282,26.881195,88.8045,125.5212,NaN,0.0,25.728,,17 / 31,232513,2021-06-14 12:04:29:015
0.455505,2.990326,9.794861,0.272141,-0.120621,-0.972321,-6.9305,20.694,-55.3574,26.881195,88.8045,125.5212,NaN,0.0,25.728,,17 / 31,233013,2021-06-14 12:04:29:515
-3.063965,4.924835,10.249756,-0.072754,0.001175,-0.45842,-18.2739,11.2762,-52.7252,26.881195,88.8045,125.5212,NaN,0.0,25.728,,16 / 31,233513,2021-06-14 12:04:30:015
-1.316208,4.359802,8.358338,-0.027924,0.023193,-0.518784,-20.6482,8.8623,-53.7491,26.881195,88.8045,125.5212,NaN,0.0,25.728,,16 / 31,234013,2021-06-14 12:04:30:515
-1.297058,3.019058,10.005554,0.482346,0.018311,-0.361298,-33.3099,-0.7996,-43.7134,26.881195,88.8045,125.5212,NaN,0.0,25.728,,16 / 31,234512,2021-06-14 12:04:31:014
-2.470215,4.335861,12.054977,0.098328,0.335663,0.499527,-32.5195,5.22,-49.6429,26.881195,88.8045,125.5212,NaN,0.0,25.728,,16 / 31,235013,2021-06-14 12:04:31:515
-1.598724,4.714157,8.276932,-0.849594,0.001984,0.142838,-24.6048,5.9631,-55.4749,26.881195,88.8045,125.5212,NaN,0.0,25.728,,16 / 31,235513,2021-06-14 12:04:32:015
-0.784698,3.311142,6.725495,0.509247,-0.09079,-0.409958,-29.3533,1.1368,-52.9663,26.881195,88.8045,125.5212,NaN,0.0,25.728,,16 / 31,236013,2021-06-14 12:04:32:515
-2.082352,4.80513,9.067017,0.066895,0.305939,0.310699,-28.8254,6.9153,-53.8376,26.881195,88.8045,125.5212,NaN,0.0,25.728,,16 / 31,236513,2021-06-14 12:04:33:015
-1.086365,3.033417,7.194748,-0.630234,0.200394,0.826645,-18.2739,16.33,-57.6202,26.881195,88.8045,125.5212,NaN,0.0,25.728,,16 / 31,237012,2021-06-14 12:04:33:514
-3.408737,2.731751,13.079697,0.466095,-0.345032,-0.34639,-25.3967,12.2192,-52.6062,26.881195,88.8045,125.5212,NaN,0.0,25.728,,16 / 31,237513,2021-06-14 12:04:34:015
-1.862076,4.192215,8.521149,-0.335251,0.072906,0.455307,-21.7026,11.026,-54.8004,26.881195,88.8045,125.5212,NaN,0.0,25.728,,16 / 31,238012,2021-06-14 12:04:34:514
-2.565979,3.062149,6.323273,-0.112961,0.506195,0.690918,-4.8187,17.3294,-56.4529,26.881195,88.8045,125.5212,NaN,0.0,25.728,,16 / 31,238513,2021-06-14 12:04:35:015
-3.767868,3.770828,10.158783,0.391174,-0.256973,-0.108932,-3.5004,24.5544,-53.3783,26.881195,88.8045,125.5212,NaN,0.0,25.728,,16 / 31,239012,2021-06-14 12:04:35:514
-0.717651,3.823502,7.759781,-0.498672,0.110016,0.708572,-0.0702,17.8238,-56.2134,26.881195,88.8045,125.5212,NaN,0.0,25.728,,16 / 31,239514,2021-06-14 12:04:36:016
-1.507736,2.899338,6.792526,-0.24408,0.545166,0.559006,10.2188,21.2219,-52.9602,26.881195,88.8045,125.5212,NaN,0.0,25.728,,16 / 31,240012,2021-06-14 12:04:36:514
-2.197265,4.66626,11.006317,-0.185135,-0.321503,-0.527664,19.7159,21.0083,-46.7117,26.881195,88.8045,125.5212,NaN,0.0,25.728,,17 / 31,240513,2021-06-14 12:04:37:015
-1.22522,3.464371,6.342423,-0.505692,-0.072861,0.094727,6.7902,14.4745,-56.9885,26.881195,88.8045,125.5212,NaN,0.0,25.728,,17 / 31,241012,2021-06-14 12:04:37:514
-3.040024,2.956802,10.264114,-0.274353,0.187683,0.848923,17.3416,21.2418,-51.2161,26.881195,88.8045,125.5212,NaN,0.0,25.728,,17 / 31,241513,2021-06-14 12:04:38:015
-1.704071,4.78598,7.166031,-0.497437,0.04245,0.570801,24.9939,15.2466,-49.3866,26.881195,88.8045,125.5212,NaN,0.0,25.728,,17 / 31,242013,2021-06-14 12:04:38:515
-1.852508,3.387756,8.952103,0.828461,-0.170685,-0.78653,14.4409,15.6982,-54.8462,26.881195,88.8045,125.5212,NaN,0.0,25.728,,17 / 31,242512,2021-06-14 12:04:39:014
-1.20607,4.948776,8.937729,-0.158951,0.438461,0.231171,16.8152,13.298,-54.538,26.881195,88.8045,125.5212,NaN,0.0,25.728,,17 / 31,243012,2021-06-14 12:04:39:514
-1.871658,5.834641,8.415802,-0.296814,-0.051117,0.369644,24.9939,11.8774,-51.8616,26.881195,88.8045,125.5212,NaN,0.0,25.728,,17 / 31,243513,2021-06-14 12:04:40:015
-1.613083,5.566483,7.946533,-0.181229,0.054611,-0.350296,21.3013,9.4604,-53.1158,26.881195,88.8045,125.5212,NaN,0.0,25.728,,17 / 31,244012,2021-06-14 12:04:40:514
-1.507736,6.299118,8.54509,2.29E-4,0.216095,0.221664,20.5093,8.4946,-53.598,26.881195,88.8045,125.5212,NaN,0.0,25.728,,15 / 31,244513,2021-06-14 12:04:41:015
-1.301834,4.96315,7.199539,-0.087845,-0.072678,0.116119,25.2594,8.5083,-49.2279,26.881195,88.8045,125.5212,NaN,0.0,25.728,,15 / 31,245013,2021-06-14 12:04:41:515
-1.368881,5.590424,9.191513,-0.021973,-0.659912,-0.79007,14.9689,10.1639,-53.8315,26.881195,88.8045,125.5212,NaN,0.0,25.728,,15 / 31,245512,2021-06-14 12:04:42:014
-1.18692,5.255234,7.697541,0.038483,0.160263,-0.142838,0.4578,14.4562,-56.572,26.881195,88.8045,125.5212,NaN,0.0,25.728,,15 / 31,246012,2021-06-14 12:04:42:514
-2.010529,4.723725,7.482056,-0.175095,0.50177,0.554108,9.4284,12.796,-55.7419,26.881195,88.8045,125.5212,NaN,0.0,25.728,,13 / 31,246513,2021-06-14 12:04:43:015
-0.976227,6.141098,8.463684,-0.015396,-0.083771,0.259125,10.2203,8.4671,-51.3382,26.881195,88.8045,125.5212,NaN,0.0,25.728,,13 / 31,247013,2021-06-14 12:04:43:515
-0.899612,5.394104,9.162796,-0.28421,0.039261,-0.026093,17.8711,13.7833,-47.3465,26.881195,88.8045,125.5212,NaN,0.0,25.728,,12 / 31,247512,2021-06-14 12:04:44:014
-2.910736,4.503464,7.908234,0.286423,-0.812149,-0.901215,10.7468,17.3737,-53.2394,26.881195,88.8045,125.5212,NaN,0.0,25.728,,12 / 31,248012,2021-06-14 12:04:44:514
-2.642593,5.978287,9.440521,-0.129822,-0.323196,-0.78714,-4.2908,17.0914,-51.7639,26.881195,88.8045,125.5212,NaN,0.0,25.728,,11 / 31,248512,2021-06-14 12:04:45:014
-3.212417,4.915268,10.709442,-0.074615,0.381653,-0.186951,-14.8437,11.2854,-53.1418,26.881195,88.8045,125.5212,NaN,0.0,25.728,,11 / 31,249014,2021-06-14 12:04:45:516
-0.990601,5.882523,8.2099,0.148834,0.124924,0.246521,-11.4151,16.5894,-50.3906,26.881195,88.8045,125.5212,NaN,0.0,25.728,,12 / 31,249514,2021-06-14 12:04:46:016
-1.388031,4.460358,8.473251,0.170578,0.361588,0.152069,-6.929,15.6387,-55.0201,26.881195,88.8045,125.5212,NaN,0.0,25.728,,12 / 31,250013,2021-06-14 12:04:46:515
-2.154175,4.762039,8.36792,-0.115723,-0.060608,-0.403732,-10.8871,14.6652,-52.0035,26.881195,88.8045,125.5212,NaN,0.0,25.728,,13 / 31,250512,2021-06-14 12:04:47:014
-1.809418,5.307907,7.989624,0.044785,0.13736,-0.1353,-13.7878,10.3256,-52.2919,26.881195,88.8045,125.5212,NaN,0.0,25.728,,13 / 31,251014,2021-06-14 12:04:47:516
-3.724777,4.364594,7.568253,-0.155655,0.51268,0.849731,-4.8187,13.9603,-55.8899,26.881195,88.8045,125.5212,NaN,0.0,25.728,,14 / 31,251513,2021-06-14 12:04:48:015
-1.957855,5.729294,8.999985,0.061203,0.14241,0.626465,1.7761,17.8299,-53.36,26.881195,88.8045,125.5212,NaN,0.0,25.728,,14 / 31,252013,2021-06-14 12:04:48:515
0.613525,4.527405,7.075043,0.086151,0.530167,0.17897,11.0107,16.1697,-51.4725,26.881195,88.8045,125.5212,NaN,0.0,25.728,,13 / 31,252512,2021-06-14 12:04:49:014
-3.710403,2.837097,8.300873,-0.501343,-0.139877,-1.105209,9.1629,23.1445,-48.4024,26.881195,88.8045,125.5212,NaN,0.0,25.728,,13 / 31,253013,2021-06-14 12:04:49:515
-3.231567,6.284745,9.77092,-0.279312,0.041397,0.129166,10.4828,15.4465,-51.9501,26.881195,88.8045,125.5212,NaN,0.0,25.728,,12 / 31,253513,2021-06-14 12:04:50:015
-4.759063,4.422058,11.911331,0.148834,-0.10144,-0.740005,13.9145,10.1624,-50.47,26.881195,88.8045,125.5212,NaN,0.0,25.728,,12 / 31,254013,2021-06-14 12:04:50:515
-0.928345,8.037308,6.131729,0.57663,0.692444,0.709381,16.0263,-1.6251,-51.6785,26.881195,88.8045,125.5212,NaN,0.0,25.728,,14 / 31,254513,2021-06-14 12:04:51:015
-0.396835,7.678177,5.336853,-0.448334,-0.025009,-0.106537,27.3712,-4.2419,-45.2133,26.881195,88.8045,125.5212,NaN,0.0,25.728,,14 / 31,255013,2021-06-14 12:04:51:515
-1.8573,6.160248,8.76535,-0.0186,-0.967148,-0.562103,19.7189,6.0867,-51.3092,26.881195,88.8045,125.5212,NaN,0.0,25.728,,15 / 31,255513,2021-06-14 12:04:52:015
-2.101501,5.623947,6.893082,-0.266724,0.170914,0.04483,20.2454,9.2163,-50.7278,26.881195,88.8045,125.5212,NaN,0.0,25.728,,15 / 31,256012,2021-06-14 12:04:52:514
-1.36409,5.207352,7.889069,-0.043991,-0.011429,0.009674,27.6321,12.3657,-47.4335,26.881195,88.8045,125.5212,NaN,0.0,25.728,,14 / 31,256512,2021-06-14 12:04:53:014
-2.139816,5.006241,7.802887,0.427841,-1.373718,-1.743393,7.3166,23.8617,-49.3515,26.881195,88.8045,125.5212,NaN,0.0,25.728,,14 / 31,257012,2021-06-14 12:04:53:514
-0.799057,5.365372,7.458115,0.20546,-1.097107,-1.114273,-29.8813,4.5044,-39.9506,26.881195,88.8045,125.5212,NaN,0.0,25.728,,16 / 31,257513,2021-06-14 12:04:54:015
-1.196487,3.291992,9.521927,-0.432358,-0.539185,-0.924835,-36.7386,-6.3446,-34.2728,26.881195,88.8045,125.5212,NaN,0.0,25.728,,16 / 31,258013,2021-06-14 12:04:54:515
-3.174103,2.861038,10.082169,-0.110123,0.667328,-0.910187,-29.8782,-17.3965,-38.3194,26.881195,88.8045,125.5212,NaN,0.0,25.728,,16 / 31,258513,2021-06-14 12:04:55:015
-4.083908,2.822724,8.03273,0.015671,-0.918686,-0.794861,-15.6281,-36.8515,-31.575,26.881195,88.8045,125.5212,NaN,0.0,25.728,,16 / 31,259012,2021-06-14 12:04:55:514
-4.016861,4.441208,7.865128,-0.602814,0.117645,-1.000015,-0.589,-40.9012,-31.8207,26.881195,88.8045,125.5212,NaN,0.0,25.728,,15 / 31,259512,2021-06-14 12:04:56:014
-3.063965,3.100464,8.420593,0.487579,0.553253,0.370621,-5.6015,-41.3956,-25.5249,26.881195,88.8045,125.5212,NaN,0.0,25.728,,15 / 31,260012,2021-06-14 12:04:56:514
-2.264313,6.988648,8.832382,0.146881,-0.223068,-0.611908,-7.1838,-41.4001,-25.293,26.881195,88.8045,125.5212,NaN,0.0,25.728,,16 / 31,260512,2021-06-14 12:04:57:014
-2.819763,3.742111,6.691971,0.432282,-0.441437,-0.672272,5.2155,-44.7357,-21.0556,26.881195,88.8045,125.5212,NaN,0.0,25.728,,16 / 31,261013,2021-06-14 12:04:57:515
0.206512,5.020615,9.368683,0.147583,-0.826889,0.270752,2.3132,-44.0216,-20.668,26.881195,88.8045,125.5212,NaN,0.0,25.728,,16 / 31,261514,2021-06-14 12:04:58:016
-1.435913,5.963928,7.156449,0.157791,0.228439,-0.294815,7.0618,-43.0466,-19.4962,26.881195,88.8045,125.5212,NaN,0.0,25.728,,16 / 31,262013,2021-06-14 12:04:58:515
-0.530899,4.177841,9.943298,-0.180969,0.525116,-0.450516,16.5604,-40.8539,-24.2813,26.881195,88.8045,125.5212,NaN,0.0,25.728,,16 / 30,262512,2021-06-14 12:04:59:014
-3.97377,4.910477,9.756546,0.028625,0.773148,0.748261,12.0758,-44.2352,-27.0309,26.881195,88.8045,125.5212,NaN,0.0,25.728,,16 / 30,263014,2021-06-14 12:04:59:516
-3.040024,4.058136,9.339966,-0.774841,0.131409,-0.369568,-0.061,-46.9162,-19.5862,26.881195,88.8045,125.5212,NaN,0.0,25.728,,15 / 31,263513,2021-06-14 12:05:00:015
-2.853287,2.616837,9.210678,-0.087479,-0.653336,-0.598495,9.4376,-44.0018,-24.4919,26.881195,88.8045,125.5212,NaN,0.0,25.728,,15 / 31,264013,2021-06-14 12:05:00:515
-2.417541,5.082855,10.302429,-0.731445,0.348099,-0.511246,15.5045,-41.5787,-25.3571,26.881195,88.8045,125.5212,NaN,0.0,25.728,,15 / 31,264513,2021-06-14 12:05:01:015
-2.479782,2.956802,12.79718,-1.171829,-0.02919,-0.532013,11.2839,-43.7561,-22.6929,26.881195,88.8045,125.5212,NaN,0.0,25.728,,15 / 31,265013,2021-06-14 12:05:01:515
-2.599502,4.517823,10.546631,0.1633,-0.753204,-0.693573,19.989,-40.3625,-24.2722,26.881195,88.8045,125.5212,NaN,0.0,25.728,,13 / 31,265512,2021-06-14 12:05:02:014
-2.441482,4.316712,7.328827,-0.532593,0.067139,-0.011459,24.7375,-34.5734,-25.4227,26.881195,88.8045,125.5212,NaN,0.0,25.728,,13 / 31,266012,2021-06-14 12:05:02:514
-2.776672,2.746109,10.244965,0.30365,0.694489,0.370712,17.3508,-37.2406,-26.7715,26.881195,88.8045,125.5212,NaN,0.0,25.728,,13 / 31,266512,2021-06-14 12:05:03:014
-0.478241,4.704575,13.544174,0.467438,0.311707,0.734238,8.3817,-43.7637,-23.703,26.881195,88.8045,125.5212,NaN,0.0,25.728,,13 / 31,267013,2021-06-14 12:05:03:515
-2.25473,4.934418,9.287292,-0.771301,0.674332,0.516388,-4.5456,-44.281,-23.3398,26.881195,88.8045,125.5212,NaN,0.0,25.728,,14 / 31,267514,2021-06-14 12:05:04:016
-2.714416,3.828293,7.601776,-0.092636,-0.218796,-0.114426,-14.5721,-40.9393,-24.1272,26.881195,88.8045,125.5212,NaN,0.0,25.728,,14 / 31,268013,2021-06-14 12:05:04:515
-1.301834,3.995896,11.035049,-0.303192,-0.360931,-0.78128,-9.8236,-41.4078,-30.8151,26.881195,88.8045,125.5212,NaN,0.0,25.728,,15 / 31,268512,2021-06-14 12:05:05:014
-1.531677,2.683869,8.497208,-0.49353,0.850113,-0.29393,-4.5456,-44.281,-25.8713,26.881195,88.8045,125.5212,NaN,0.0,25.728,,15 / 31,269013,2021-06-14 12:05:05:515
-0.765533,4.015045,10.9776,0.581238,0.384323,0.59256,-6.9199,-43.5654,-24.8856,26.881195,88.8045,125.5212,NaN,0.0,25.728,,16 / 31,269512,2021-06-14 12:05:06:014
-1.220444,3.809143,6.811676,-0.371017,-0.212326,0.085663,-10.0861,-42.6117,-26.6098,26.881195,88.8045,125.5212,NaN,0.0,25.728,,16 / 31,270013,2021-06-14 12:05:06:515
0.345367,2.2146,8.463684,1.230255,0.024429,0.567703,-15.1001,-40.9409,-27.2568,26.881195,88.8045,125.5212,NaN,0.0,25.728,,16 / 31,270513,2021-06-14 12:05:07:015
-0.171783,4.355026,8.157227,-0.031113,0.356979,0.401611,-21.9589,-38.3133,-24.8413,26.881195,88.8045,125.5212,NaN,0.0,25.728,,16 / 31,271012,2021-06-14 12:05:07:514
1.485016,3.880966,8.7845,-0.470535,-0.311829,0.17009,-31.7215,-31.842,-23.0682,26.881195,88.8045,125.5212,NaN,0.0,25.728,,16 / 31,271514,2021-06-14 12:05:08:016
0.680557,2.23375,12.835495,-0.467255,0.824631,-0.366898,-32.515,-25.3464,-28.8467,26.881195,88.8045,125.5212,NaN,0.0,25.728,,16 / 31,272012,2021-06-14 12:05:08:514
-1.148605,4.278412,4.451004,0.861221,0.349442,-0.933258,-14.8361,-40.2191,-29.3564,26.881195,88.8045,125.5212,NaN,0.0,25.728,,17 / 31,272513,2021-06-14 12:05:09:015
-1.052841,3.727738,6.131729,0.740051,-0.733414,-0.826111,2.3132,-45.7062,-22.9187,26.881195,88.8045,125.5212,NaN,0.0,25.728,,17 / 31,273012,2021-06-14 12:05:09:514
-0.506958,5.240875,7.73584,0.365173,0.385834,0.259476,5.7434,-44.4931,-28.598,26.881195,88.8045,125.5212,NaN,0.0,25.728,,17 / 31,273512,2021-06-14 12:05:10:014
0.010178,5.528183,10.249756,-0.855545,-0.144852,0.344162,-2.9633,-43.074,-27.3163,26.881195,88.8045,125.5212,NaN,0.0,25.728,,17 / 31,274012,2021-06-14 12:05:10:514
-2.369659,3.019058,7.999207,-0.302841,0.810333,0.178879,3.1052,-44.7418,-28.511,26.881195,88.8045,125.5212,NaN,0.0,25.728,,16 / 31,274512,2021-06-14 12:05:11:014
-1.622665,4.498673,9.248978,-0.40564,-0.274811,-0.460281,3.8971,-45.2209,-29.8111,26.881195,88.8045,125.5212,NaN,0.0,25.728,,16 / 31,275013,2021-06-14 12:05:11:515
-1.708847,3.876175,6.964905,-0.498672,0.598709,-0.473419,7.0633,-46.4157,-28.5538,26.881195,88.8045,125.5212,NaN,0.0,25.728,,15 / 31,275513,2021-06-14 12:05:12:015
-2.158966,2.70781,10.479599,0.515808,0.686142,0.536545,4.1611,-47.3862,-31.9351,26.881195,88.8045,125.5212,NaN,0.0,25.728,,15 / 31,276012,2021-06-14 12:05:12:514
-0.736801,5.063706,8.44931,-0.153259,-0.23558,0.074295,-5.072,-50.7812,-27.4094,26.881195,88.8045,125.5212,NaN,0.0,25.728,,15 / 31,276512,2021-06-14 12:05:13:014
0.096375,2.659927,9.881042,0.097427,0.246628,-0.806671,7.8552,-49.3011,-29.9591,26.881195,88.8045,125.5212,NaN,0.0,25.728,,15 / 31,277013,2021-06-14 12:05:13:515
-1.392822,2.961594,7.798096,0.373154,-0.013824,0.125427,9.4376,-48.8159,-28.2455,26.881195,88.8045,125.5212,NaN,0.0,25.728,,15 / 31,277513,2021-06-14 12:05:14:015
-0.396835,5.054123,8.937729,-0.209106,-0.155594,-0.324646,11.0199,-47.8485,-29.6494,26.881195,88.8045,125.5212,NaN,0.0,25.728,,15 / 31,278012,2021-06-14 12:05:14:514
0.872101,3.464371,9.665573,0.349991,-0.653778,-0.970551,28.4317,-38.414,-32.2372,26.881195,88.8045,125.5212,NaN,0.0,25.728,,15 / 31,278512,2021-06-14 12:05:15:014
-2.101501,4.556137,8.966461,0.140213,-0.037521,-0.513107,41.6214,-20.5673,-32.4097,26.881195,88.8045,125.5212,NaN,0.0,25.728,,15 / 31,279013,2021-06-14 12:05:15:515
-1.268326,3.75647,7.826828,-0.01593,0.100067,-0.323853,42.9398,-15.7501,-33.9966,26.881195,88.8045,125.5212,NaN,0.0,25.728,,15 / 31,279512,2021-06-14 12:05:16:014
-1.273102,3.028626,10.48439,0.532776,-0.20459,0.217575,42.1463,-6.1264,-37.7655,26.881195,88.8045,125.5212,NaN,0.0,25.728,,15 / 31,280013,2021-06-14 12:05:16:515
-1.033691,4.857804,8.94252,-0.23671,0.009872,-0.247498,40.2985,-1.0773,-39.9429,26.881195,88.8045,125.5212,NaN,0.0,25.728,,15 / 31,280512,2021-06-14 12:05:17:014
-2.27388,3.450012,8.525925,-0.042923,0.347748,0.605072,39.2441,-9.0225,-37.2818,26.881195,88.8045,125.5212,NaN,0.0,25.728,,15 / 31,281013,2021-06-14 12:05:17:515
-0.583572,4.853012,9.095749,0.051086,-0.005127,-0.354385,34.4971,-17.4591,-34.6771,26.881195,88.8045,125.5212,NaN,0.0,25.728,,16 / 31,281513,2021-06-14 12:05:18:015
-2.125442,5.039765,8.267365,-0.204224,0.230118,0.269867,35.2875,-14.8087,-34.9808,26.881195,88.8045,125.5212,NaN,0.0,25.728,,16 / 31,282013,2021-06-14 12:05:18:515
-1.464645,4.125183,8.798874,-0.114822,0.25853,0.578079,32.9147,-26.8494,-26.2985,26.881195,88.8045,125.5212,NaN,0.0,25.728,,16 / 31,282512,2021-06-14 12:05:19:014
-1.354507,5.068497,9.766129,-0.145096,-0.343521,-1.19043,32.6523,-28.775,-25.0092,26.881195,88.8045,125.5212,NaN,0.0,25.728,,16 / 31,283013,2021-06-14 12:05:19:515
-1.756744,5.260025,7.817246,-0.058105,-0.36412,-0.379684,38.9816,-11.4288,-31.3568,26.881195,88.8045,125.5212,NaN,0.0,25.728,,16 / 30,283513,2021-06-14 12:05:20:015
-1.239593,4.441208,9.181946,0.191437,0.082581,-0.136795,39.5081,-9.9838,-30.9998,26.881195,88.8045,125.5212,NaN,0.0,25.728,,16 / 30,284013,2021-06-14 12:05:20:515
-1.110306,5.00145,8.569031,-0.085526,-0.69577,-0.724823,37.1323,-2.5299,-41.2659,26.881195,88.8045,125.5212,NaN,0.0,25.728,,17 / 31,284512,2021-06-14 12:05:21:014
-0.013763,3.488312,7.046311,0.311279,-0.590668,-0.510437,24.7314,7.0633,-50.5981,26.881195,88.8045,125.5212,NaN,0.0,25.728,,17 / 31,285013,2021-06-14 12:05:21:515
-1.019318,5.12117,8.856339,0.346436,0.156357,-0.075989,16.2872,17.3889,-50.7568,26.881195,88.8045,125.5212,NaN,0.0,25.728,,20 / 31,285513,2021-06-14 12:05:22:015
-1.335358,4.838654,8.669586,0.14119,-0.062744,-0.077225,13.385,16.8991,-51.181,26.881195,88.8045,125.5212,NaN,0.0,25.728,,20 / 31,286012,2021-06-14 12:05:22:514
-2.163757,5.89209,7.65445,0.243988,-0.493378,-0.585983,1.2497,16.1438,-53.1708,26.881195,88.8045,125.5212,NaN,0.0,25.728,,20 / 31,286512,2021-06-14 12:05:23:014
-1.593933,5.006241,9.062225,-0.313492,-0.035217,-0.548355,-11.4151,17.0715,-49.4583,26.881195,88.8045,125.5212,NaN,0.0,25.728,,20 / 31,287013,2021-06-14 12:05:23:515
-2.302612,3.06694,7.33841,0.631393,0.038193,-0.580399,-15.3717,13.2095,-53.5553,26.881195,88.8045,125.5212,NaN,0.0,25.728,,19 / 31,287512,2021-06-14 12:05:24:014
-2.101501,4.575287,9.359116,0.103027,-0.909454,-1.595505,-23.5489,0.6714,-49.3439,26.881195,88.8045,125.5212,NaN,0.0,25.728,,19 / 31,288013,2021-06-14 12:05:24:515
-1.191711,3.330307,8.2099,0.041412,-0.49826,-1.127319,-25.3906,-29.1763,-35.0647,26.881195,88.8045,125.5212,NaN,0.0,25.728,,19 / 31,288513,2021-06-14 12:05:25:015
-2.585129,4.340653,7.788513,-0.06955,-1.101105,0.223526,-22.7524,-33.5022,-31.8588,26.881195,88.8045,125.5212,NaN,0.0,25.728,,19 / 31,289013,2021-06-14 12:05:25:515
-0.114319,4.038986,9.287292,-0.070267,-0.21756,-0.332809,-14.3082,-39.0137,-34.5291,26.881195,88.8045,125.5212,NaN,0.0,25.728,,19 / 31,289513,2021-06-14 12:05:26:015
-1.895599,4.321503,8.96167,0.073898,0.265366,0.521454,-21.1685,-36.3846,-35.1517,26.881195,88.8045,125.5212,NaN,0.0,25.728,,19 / 31,290013,2021-06-14 12:05:26:515
-2.230789,3.938431,9.483612,0.31395,0.285507,0.392014,-23.5428,-35.91,-36.6562,26.881195,88.8045,125.5212,NaN,0.0,25.728,,19 / 31,290513,2021-06-14 12:05:27:015
-1.004959,5.657471,8.257782,-0.167816,-0.068863,-0.202042,-31.9855,-32.3242,-32.1457,26.881195,88.8045,125.5212,NaN,0.0,25.728,,19 / 31,291013,2021-06-14 12:05:27:515
0.096375,4.580078,9.13884,0.521317,-0.343613,0.422638,-34.6237,-35.4599,-23.9822,26.881195,88.8045,125.5212,NaN,0.0,25.728,,19 / 31,291513,2021-06-14 12:05:28:015
-1.651398,4.326294,10.249756,0.05162,0.264923,0.494202,-30.9296,-34.4864,-31.601,26.881195,88.8045,125.5212,NaN,0.0,25.728,,19 / 31,292013,2021-06-14 12:05:28:515
-1.258743,4.455582,7.869919,0.135605,0.583435,0.603561,-38.8473,-22.7158,-35.9589,26.881195,88.8045,125.5212,NaN,0.0,25.728,,19 / 31,292513,2021-06-14 12:05:29:015
-1.450287,3.435639,7.87471,0.431839,-0.146271,-0.255844,-40.1657,-26.0895,-28.0319,26.881195,88.8045,125.5212,NaN,0.0,25.728,,19 / 31,293012,2021-06-14 12:05:29:514
-1.158188,5.863373,9.143631,-0.297516,0.344543,0.690018,-40.9576,-18.631,-32.4524,26.881195,88.8045,125.5212,NaN,0.0,25.728,,19 / 31,293512,2021-06-14 12:05:30:014
-0.104736,4.029404,6.797318,-0.461212,2.296555,0.002396,-33.5724,-9.2239,-48.4283,26.881195,88.8045,125.5212,NaN,0.0,25.728,,19 / 31,294013,2021-06-14 12:05:30:515
-6.257843,6.069275,6.969696,0.096634,1.26857,0.436142,-5.8701,-6.2592,-65.3564,26.881195,88.8045,125.5212,NaN,0.0,25.728,,19 / 31,294512,2021-06-14 12:05:31:014
-1.330566,3.38298,8.214691,-0.657043,-0.026337,0.514526,-20.9137,20.8954,-52.7664,26.881195,88.8045,125.5212,NaN,0.0,25.728,,19 / 31,295013,2021-06-14 12:05:31:515
-1.732803,2.458817,7.65445,-0.067947,0.316406,0.470673,-6.6666,22.8607,-56.1783,26.881195,88.8045,125.5212,NaN,0.0,25.728,,18 / 31,295512,2021-06-14 12:05:32:014
-0.607513,3.157913,9.756546,0.258194,-0.561111,0.005508,6.2607,26.9882,-50.563,26.881195,88.8045,125.5212,NaN,0.0,25.728,,18 / 31,296013,2021-06-14 12:05:32:515
1.207291,3.38298,7.386292,0.001205,-1.001327,-0.200974,-4.2923,23.3475,-54.3274,26.881195,88.8045,125.5212,NaN,0.0,25.728,,18 / 31,296512,2021-06-14 12:05:33:014
1.489807,4.043778,7.802887,-0.088821,0.682144,-0.011993,-7.457,15.8783,-55.1514,26.881195,88.8045,125.5212,NaN,0.0,25.728,,18 / 31,297013,2021-06-14 12:05:33:515
1.595139,5.566483,8.70311,-0.2724,-0.323639,-0.05069,-5.0827,16.8472,-55.4062,26.881195,88.8045,125.5212,NaN,0.0,25.728,,18 / 31,297512,2021-06-14 12:05:34:014
2.691696,4.833863,6.912247,0.457397,-0.092392,-0.082657,-6.1386,15.6418,-55.3879,26.881195,88.8045,125.5212,NaN,0.0,25.728,,18 / 31,298012,2021-06-14 12:05:34:514
-0.056854,5.690979,9.756546,0.765884,0.316681,0.335464,3.3615,9.8923,-60.8719,26.881195,88.8045,125.5212,NaN,0.0,25.728,,17 / 31,298512,2021-06-14 12:05:35:014
-2.168533,6.275162,6.873932,0.301697,-0.218536,0.390686,11.2762,7.0251,-61.0397,26.881195,88.8045,125.5212,NaN,0.0,25.728,,17 / 31,299012,2021-06-14 12:05:35:514
0.642258,4.78598,7.333618,-0.686249,-0.007263,-0.910095,-0.0702,14.4547,-58.1818,26.881195,88.8045,125.5212,NaN,0.0,25.728,,15 / 31,299514,2021-06-14 12:05:36:016
0.905609,3.971954,9.306442,-0.068939,-0.015244,0.407471,1.2497,17.3462,-56.4102,26.881195,88.8045,125.5212,NaN,0.0,25.728,,15 / 31,300012,2021-06-14 12:05:36:514
0.431564,5.097229,8.602539,-0.130096,0.38147,0.369644,5.4703,20.0058,-56.1172,26.881195,88.8045,125.5212,NaN,0.0,25.728,,14 / 31,300513,2021-06-14 12:05:37:015
0.508179,3.699005,8.334397,-0.021881,-0.097443,0.16449,2.3041,16.8686,-57.6645,26.881195,88.8045,125.5212,NaN,0.0,25.728,,14 / 31,301012,2021-06-14 12:05:37:514
-1.359299,5.374954,8.803665,-0.014236,0.178192,0.127914,5.4703,15.9149,-56.4468,26.881195,88.8045,125.5212,NaN,0.0,25.728,,14 / 31,301513,2021-06-14 12:05:38:015
-0.799057,4.350235,7.343201,-0.166229,0.334427,0.040298,14.1785,9.6817,-55.4077,26.881195,88.8045,125.5212,NaN,0.0,25.728,,14 / 31,302013,2021-06-14 12:05:38:515
-0.248398,3.732529,9.210678,0.397308,-0.602203,-0.297028,8.3725,17.366,-54.158,26.881195,88.8045,125.5212,NaN,0.0,25.728,,14 / 31,302514,2021-06-14 12:05:39:016
-0.981018,4.838654,8.818024,-0.504883,0.125732,-0.493134,-0.8621,22.3953,-52.5574,26.881195,88.8045,125.5212,NaN,0.0,25.728,,14 / 31,303012,2021-06-14 12:05:39:514
0.172989,3.507477,10.158783,0.255539,-0.563141,0.255569,-4.0283,21.1823,-55.4382,26.881195,88.8045,125.5212,NaN,0.0,25.728,,14 / 31,303513,2021-06-14 12:05:40:015
-0.104736,4.297562,9.881042,-0.243546,-0.464783,-0.555618,-15.6357,15.8554,-47.9675,26.881195,88.8045,125.5212,NaN,0.0,25.728,,14 / 31,304012,2021-06-14 12:05:40:514
0.469864,5.695771,7.664017,-0.164093,0.091904,-0.206833,-22.4945,14.6332,-45.9213,26.881195,88.8045,125.5212,NaN,0.0,25.728,,15 / 31,304513,2021-06-14 12:05:41:015
-1.024109,4.829071,7.903443,-0.734283,1.204834,-0.309814,-14.0518,9.8434,-53.27,26.881195,88.8045,125.5212,NaN,0.0,25.728,,15 / 31,305012,2021-06-14 12:05:41:514
-1.512527,4.484314,11.695862,-0.513062,-0.381958,0.269959,-9.3048,17.0761,-52.6352,26.881195,88.8045,125.5212,NaN,0.0,25.728,,16 / 31,305513,2021-06-14 12:05:42:015
-4.735122,7.850556,5.614578,0.584793,0.522797,-0.845642,-4.2877,-3.8483,-58.9004,26.881195,88.8045,125.5212,NaN,0.0,25.728,,16 / 31,306013,2021-06-14 12:05:42:515
-3.073547,3.651123,8.353546,0.172882,0.02124,0.535294,-16.6901,10.5576,-53.8483,26.881195,88.8045,125.5212,NaN,0.0,25.728,,16 / 31,306513,2021-06-14 12:05:43:015
-2.25473,3.10524,9.47403,0.138351,-0.16713,-0.203384,-8.7769,22.6135,-49.9237,26.881195,88.8045,125.5212,NaN,0.0,25.728,,16 / 31,307013,2021-06-14 12:05:43:515
-1.565201,4.211365,9.550644,-0.252426,-0.63443,0.057709,-16.1636,18.7424,-52.5909,26.881195,88.8045,125.5212,NaN,0.0,25.728,,16 / 31,307513,2021-06-14 12:05:44:015
-1.87645,3.052567,9.014343,0.007767,0.502213,0.626907,-13.5254,19.2307,-52.7191,26.881195,88.8045,125.5212,NaN,0.0,25.728,,16 / 31,308014,2021-06-14 12:05:44:516
-1.632233,4.857804,9.028717,0.185577,0.009079,0.04332,-4.8187,17.8116,-56.5323,26.881195,88.8045,125.5212,NaN,0.0,25.728,,15 / 31,308512,2021-06-14 12:05:45:014
-1.507736,3.564926,9.349533,-0.158051,-0.050934,-0.079269,-8.2489,13.2294,-55.8594,26.881195,88.8045,125.5212,NaN,0.0,25.728,,15 / 31,309013,2021-06-14 12:05:45:515
-0.387253,4.163483,9.785278,0.028015,0.014496,-0.397079,-6.1371,12.9944,-55.9586,26.881195,88.8045,125.5212,NaN,0.0,25.728,,15 / 31,309513,2021-06-14 12:05:46:015
-2.178116,4.398117,8.841965,-0.08464,-0.623505,-0.692596,-12.7335,15.6235,-51.9791,26.881195,88.8045,125.5212,NaN,0.0,25.728,,15 / 31,310012,2021-06-14 12:05:46:514
0.096375,2.856247,8.176377,-0.078171,0.10939,0.128372,-16.4276,15.3717,-50.5554,26.881195,88.8045,125.5212,NaN,0.0,25.728,,15 / 31,310513,2021-06-14 12:05:47:015
-0.53569,4.13475,10.85788,-0.231033,0.209259,0.378082,-8.2489,18.7637,-50.708,26.881195,88.8045,125.5212,NaN,0.0,25.728,,15 / 31,311013,2021-06-14 12:05:47:515
-0.688919,4.46994,8.013565,0.091125,-0.106598,0.696243,0.4578,18.7881,-53.244,26.881195,88.8045,125.5212,NaN,0.0,25.728,,15 / 31,311512,2021-06-14 12:05:48:014
-0.229233,3.392548,8.353546,0.68573,-0.100647,-0.080338,-4.8187,19.7372,-52.298,26.881195,88.8045,125.5212,NaN,0.0,25.728,,15 / 31,312013,2021-06-14 12:05:48:515
-0.741592,3.713379,8.434952,0.268753,0.505142,1.380768,9.1629,24.5895,-46.6187,26.881195,88.8045,125.5212,NaN,0.0,25.728,,15 / 31,312513,2021-06-14 12:05:49:015
-1.450287,2.35347,12.102875,-0.442047,-0.004684,0.991318,31.3263,10.9314,-42.4988,26.881195,88.8045,125.5212,NaN,0.0,25.728,,15 / 31,313013,2021-06-14 12:05:49:515
-1.775894,2.2146,7.438965,0.455093,-0.02829,0.663574,37.6602,-1.5656,-39.3097,26.881195,88.8045,125.5212,NaN,0.0,25.728,,14 / 31,313513,2021-06-14 12:05:50:015
-0.238815,1.606476,12.979141,0.254028,0.376419,1.667236,30.2765,-19.6365,-42.1371,26.881195,88.8045,125.5212,NaN,0.0,25.728,,14 / 31,314013,2021-06-14 12:05:50:515
-3.298599,3.186646,7.156449,0.073105,0.816544,1.022919,15.5045,-37.4878,-25.5341,26.881195,88.8045,125.5212,NaN,0.0,25.728,,14 / 31,314513,2021-06-14 12:05:51:015
-1.957855,4.455582,9.186737,0.168625,-0.27623,0.408081,0.2014,-37.7701,-32.7118,26.881195,88.8045,125.5212,NaN,0.0,25.728,,14 / 31,315012,2021-06-14 12:05:51:514
-1.579559,3.201019,8.861115,-0.077271,0.283386,0.797531,-0.853,-38.4949,-25.1801,26.881195,88.8045,125.5212,NaN,0.0,25.728,,16 / 31,315513,2021-06-14 12:05:52:015
-1.435913,6.423615,7.759781,0.196762,0.714462,0.279099,-9.0317,-38.2767,-20.0623,26.881195,88.8045,125.5212,NaN,0.0,25.728,,16 / 31,316013,2021-06-14 12:05:52:515
-0.741592,5.978287,7.520371,0.203064,-0.362427,-0.469162,-12.1979,-39.9704,-17.2928,26.881195,88.8045,125.5212,NaN,0.0,25.728,,16 / 31,316512,2021-06-14 12:05:53:014
-0.368103,3.239319,9.775711,0.504364,-1.448288,-1.775894,15.2405,-40.1352,-19.5694,26.881195,88.8045,125.5212,NaN,0.0,25.728,,16 / 31,317012,2021-06-14 12:05:53:514
-1.220444,4.067719,8.291306,0.023041,-0.3927,-1.452667,31.3309,-19.3924,-31.868,26.881195,88.8045,125.5212,NaN,0.0,25.728,,16 / 31,317512,2021-06-14 12:05:54:014
-3.217193,4.484314,8.971252,-0.369598,-0.325058,-1.428436,30.2734,-1.5854,-40.5945,26.881195,88.8045,125.5212,NaN,0.0,25.728,,16 / 31,318014,2021-06-14 12:05:54:516
-1.550842,3.239319,7.098984,-0.222687,0.179794,-0.287445,22.6196,9.9457,-46.8903,26.881195,88.8045,125.5212,NaN,0.0,25.728,,16 / 31,318513,2021-06-14 12:05:55:015
-1.191711,3.689438,9.531494,-0.195343,0.212906,0.53122,24.9939,16.9312,-43.5928,26.881195,88.8045,125.5212,NaN,0.0,25.728,,16 / 31,319012,2021-06-14 12:05:55:514
-2.182907,3.157913,9.301651,0.328232,0.147736,0.513275,31.0638,5.8777,-43.2205,26.881195,88.8045,125.5212,NaN,0.0,25.728,,16 / 31,319513,2021-06-14 12:05:56:015
-0.765533,3.306366,12.3806,0.092896,-0.414551,0.335831,33.7021,0.3494,-42.3447,26.881195,88.8045,125.5212,NaN,0.0,25.728,,16 / 31,320012,2021-06-14 12:05:56:514
0.220871,4.393326,9.94809,-0.452698,0.114899,0.269424,33.1757,-7.3547,-45.2011,26.881195,88.8045,125.5212,NaN,0.0,25.728,,16 / 31,320513,2021-06-14 12:05:57:015
-1.842926,3.550568,9.201096,-0.313675,0.723419,0.837387,35.289,-20.1035,-38.1485,26.881195,88.8045,125.5212,NaN,0.0,25.728,,16 / 31,321012,2021-06-14 12:05:57:514
0.67099,1.975189,4.958573,0.669663,-0.392075,-0.32251,29.4846,-25.1739,-39.3265,26.881195,88.8045,125.5212,NaN,0.0,25.728,,16 / 31,321513,2021-06-14 12:05:58:015
-0.995377,4.829071,11.657547,0.06192,0.246368,-0.349228,31.5949,-17.4667,-42.7765,26.881195,88.8045,125.5212,NaN,0.0,25.728,,16 / 31,322012,2021-06-14 12:05:58:514
-1.086365,4.292771,9.809219,0.063873,0.050446,0.645462,34.761,-19.6243,-36.2946,26.881195,88.8045,125.5212,NaN,0.0,25.728,,15 / 31,322513,2021-06-14 12:05:59:015
-0.123886,2.363037,5.049546,0.483948,-0.115646,-0.202667,34.761,-15.2924,-37.0178,26.881195,88.8045,125.5212,NaN,0.0,25.728,,15 / 31,323013,2021-06-14 12:05:59:515
-1.172546,4.58487,11.078156,0.175461,0.151382,-0.423004,35.5499,-3.978,-40.7928,26.881195,88.8045,125.5212,NaN,0.0,25.728,,16 / 31,323513,2021-06-14 12:06:00:015
-0.808639,4.508255,8.985611,-0.016647,0.088974,0.164322,34.758,-1.5732,-38.295,26.881195,88.8045,125.5212,NaN,0.0,25.728,,16 / 31,324012,2021-06-14 12:06:00:514
0.235245,2.458817,6.064698,0.243378,-0.139175,-0.258682,34.23,0.5905,-39.7614,26.881195,88.8045,125.5212,NaN,0.0,25.728,,16 / 31,324512,2021-06-14 12:06:01:014
-1.924332,3.938431,10.565796,0.109055,-0.046585,0.077499,35.8139,0.5951,-36.4471,26.881195,88.8045,125.5212,NaN,0.0,25.728,,16 / 31,325013,2021-06-14 12:06:01:515
-1.057632,4.206574,9.067017,-0.122986,0.426758,0.837738,36.3434,-18.898,-32.5958,26.881195,88.8045,125.5212,NaN,0.0,25.728,,19 / 31,325512,2021-06-14 12:06:02:014
-0.186142,2.990326,6.275376,-0.036972,-0.019775,-0.310699,29.2206,-24.2126,-37.5076,26.881195,88.8045,125.5212,NaN,0.0,25.728,,19 / 31,326013,2021-06-14 12:06:02:515
-0.717651,2.712601,11.724579,-0.018066,0.449921,0.131561,24.472,-23.0225,-39.0411,26.881195,88.8045,125.5212,NaN,0.0,25.728,,20 / 31,326513,2021-06-14 12:06:03:015
-0.411194,4.82428,8.36792,0.172089,0.035263,0.619095,14.183,-27.623,-36.5234,26.881195,88.8045,125.5212,NaN,0.0,25.728,,20 / 31,327013,2021-06-14 12:06:03:515
0.091583,4.675843,7.697541,-0.082962,0.945892,0.68692,10.7529,-24.263,-37.1765,26.881195,88.8045,125.5212,NaN,0.0,25.728,,19 / 31,327513,2021-06-14 12:06:04:015
-0.818207,5.169052,8.789291,0.066269,0.705322,1.011475,11.5463,-36.7767,-25.3296,26.881195,88.8045,125.5212,NaN,0.0,25.728,,19 / 31,328013,2021-06-14 12:06:04:515
-1.847717,4.163483,8.420593,-0.333466,0.6138,1.168869,-17.4744,-37.0972,-17.1738,26.881195,88.8045,125.5212,NaN,0.0,25.728,,20 / 31,328514,2021-06-14 12:06:05:016
-0.69371,3.445221,12.040619,-0.260681,-0.266022,0.398682,-24.8642,-24.8428,-27.0889,26.881195,88.8045,125.5212,NaN,0.0,25.728,,20 / 31,329014,2021-06-14 12:06:05:516
-0.909195,4.546555,8.085404,-0.110291,0.31073,0.455933,-29.8767,-19.0811,-31.4575,26.881195,88.8045,125.5212,NaN,0.0,25.728,,20 / 31,329513,2021-06-14 12:06:06:015
-1.689697,3.172287,7.778946,-0.009903,0.356003,0.679993,-28.5583,-12.8204,-39.8666,26.881195,88.8045,125.5212,NaN,0.0,25.728,,20 / 31,330012,2021-06-14 12:06:06:514
-1.627457,5.322281,9.426147,0.18895,-0.309525,-0.041107,-29.3518,-8.7311,-38.1561,26.881195,88.8045,125.5212,NaN,0.0,25.728,,20 / 31,330512,2021-06-14 12:06:07:014
-1.531677,4.78598,8.262573,0.287048,-0.604782,-0.844131,-30.4047,-20.5261,-33.8394,26.881195,88.8045,125.5212,NaN,0.0,25.728,,20 / 31,331013,2021-06-14 12:06:07:515
-3.135803,3.009476,8.07103,-0.089172,0.261719,-0.105026,-26.1826,-26.7715,-35.6049,26.881195,88.8045,125.5212,NaN,0.0,25.728,,18 / 31,331513,2021-06-14 12:06:08:015
-2.977783,4.853012,8.478043,-0.195251,0.130341,0.246613,-26.1826,-22.4396,-40.8844,26.881195,88.8045,125.5212,NaN,0.0,25.728,,18 / 31,332098,2021-06-14 12:06:08:600
-0.976227,3.26326,6.64888,0.180084,-0.191284,-0.123123,-28.8208,-24.3729,-39.5035,26.881195,88.8045,125.5212,NaN,0.0,25.728,,18 / 31,332598,2021-06-14 12:06:09:100
-1.196487,5.791535,8.128495,-0.144302,-0.053604,-0.052109,-29.0848,-25.8179,-38.8016,26.881195,88.8045,125.5212,NaN,0.0,25.728,,18 / 31,333098,2021-06-14 12:06:09:600
-2.90596,4.393326,6.849991,0.099289,0.27832,0.322693,-23.8083,-24.8398,-46.6507,26.881195,88.8045,125.5212,NaN,0.0,25.728,,17 / 31,333598,2021-06-14 12:06:10:100
-0.186142,3.483536,11.916122,-0.223663,-0.176285,0.114258,-27.2385,-18.8324,-45.2148,26.881195,88.8045,125.5212,NaN,0.0,25.728,,17 / 31,334098,2021-06-14 12:06:10:600
-0.727234,4.781189,8.870697,-0.352112,-0.198822,-0.392105,-28.0304,-19.7983,-42.1539,26.881195,88.8045,125.5212,NaN,0.0,25.728,,16 / 31,334597,2021-06-14 12:06:11:099
-2.297821,2.693451,7.261795,0.02713,0.44725,-0.080078,-25.1282,-21.7148,-43.8583,26.881195,88.8045,125.5212,NaN,0.0,25.728,,16 / 31,335097,2021-06-14 12:06:11:599
-1.325775,5.207352,10.900986,-0.057571,-0.017914,0.483185,-24.3378,-14.2517,-48.0041,26.881195,88.8045,125.5212,NaN,0.0,25.728,,16 / 31,335598,2021-06-14 12:06:12:100
-0.85173,4.053345,6.572266,0.460236,-0.534927,-0.720825,-24.6002,-21.9543,-41.7023,26.881195,88.8045,125.5212,NaN,0.0,25.728,,16 / 31,336097,2021-06-14 12:06:12:599
-1.052841,5.647888,8.779724,0.344925,0.053558,-0.43161,-18.7942,-33.49,-37.7518,26.881195,88.8045,125.5212,NaN,0.0,25.728,,16 / 31,336598,2021-06-14 12:06:13:100
-1.665756,5.097229,8.056671,-0.140396,-0.638245,-0.730865,-9.8221,-41.6489,-32.2937,26.881195,88.8045,125.5212,NaN,0.0,25.728,,16 / 31,337098,2021-06-14 12:06:13:600
-0.928345,5.939987,8.583389,0.299469,-0.703323,-0.937164,4.9515,-44.014,-28.8162,26.881195,88.8045,125.5212,NaN,0.0,25.728,,16 / 31,337598,2021-06-14 12:06:14:100
-1.924332,5.341431,7.884293,-0.190018,-0.297272,-0.807831,19.1986,-40.6052,-31.9641,26.881195,88.8045,125.5212,NaN,0.0,25.728,,16 / 31,338107,2021-06-14 12:06:14:609
-1.483795,4.623169,7.711899,0.290955,-0.80159,0.148605,26.0574,-40.3458,-30.8105,26.881195,88.8045,125.5212,NaN,0.0,25.728,,14 / 31,338598,2021-06-14 12:06:15:100
-0.425568,3.603241,9.383057,-0.053223,-0.469666,-1.097046,35.2905,-30.4535,-36.9263,26.881195,88.8045,125.5212,NaN,0.0,25.728,,14 / 31,339097,2021-06-14 12:06:15:599
-2.74794,4.762039,9.339966,0.247635,0.566299,0.517624,39.2471,-23.2224,-41.4932,26.881195,88.8045,125.5212,NaN,0.0,25.728,,15 / 32,339597,2021-06-14 12:06:16:099
-3.41832,4.575287,7.213913,-0.201996,0.65036,0.025833,31.3355,-42.7383,-26.4526,26.881195,88.8045,125.5212,NaN,0.0,25.728,,15 / 32,340098,2021-06-14 12:06:16:600
-4.739914,5.154679,6.624939,0.012299,0.173218,0.382431,28.1693,-46.3562,-18.3014,26.881195,88.8045,125.5212,NaN,0.0,25.728,,14 / 32,340598,2021-06-14 12:06:17:100
-2.345718,3.91449,9.799652,0.439209,0.197357,0.494553,16.0324,-43.9835,-44.1025,26.881195,88.8045,125.5212,NaN,0.0,25.728,,14 / 32,341098,2021-06-14 12:06:17:600
-1.493378,4.771607,8.185959,0.039734,-0.109436,0.39006,4.425,-48.8296,-32.1548,26.881195,88.8045,125.5212,NaN,0.0,25.728,,14 / 32,341598,2021-06-14 12:06:18:100
-0.995377,4.991883,8.003998,0.469116,0.062073,-0.091354,4.1611,-50.0336,-27.9495,26.881195,88.8045,125.5212,NaN,0.0,25.728,,14 / 32,342097,2021-06-14 12:06:18:599
-3.590698,7.074829,5.695984,0.466278,0.591156,0.734406,4.1611,-49.5514,-23.4741,26.881195,88.8045,125.5212,NaN,0.0,25.728,,14 / 32,342597,2021-06-14 12:06:19:099
-1.751953,5.585633,6.940964,-1.008942,-1.357132,-0.569916,-2.1698,-50.0504,-16.9006,26.881195,88.8045,125.5212,NaN,0.0,25.728,,14 / 32,343097,2021-06-14 12:06:19:599
-2.738357,4.929627,7.573044,0.504181,-0.560211,-0.416428,8.9096,-45.2072,-28.4332,26.881195,88.8045,125.5212,NaN,0.0,25.728,,15 / 31,343597,2021-06-14 12:06:20:099
-1.455063,1.740555,7.903443,0.346436,0.215302,0.567261,5.7434,-46.9009,-28.7033,26.881195,88.8045,125.5212,NaN,0.0,25.728,,15 / 31,344098,2021-06-14 12:06:20:600
-1.177338,3.962372,9.560226,0.223129,-0.450409,0.363968,-7.4478,-48.14,-32.3151,26.881195,88.8045,125.5212,NaN,0.0,25.728,,15 / 32,344598,2021-06-14 12:06:21:100
-1.407181,4.225739,6.735062,0.077728,0.501846,0.660996,-13.5147,-50.0824,-26.9745,26.881195,88.8045,125.5212,NaN,0.0,25.728,,15 / 32,345098,2021-06-14 12:06:21:600
-1.536468,2.717392,8.157227,-0.152557,-0.075073,1.34259,-39.3723,-34.9915,-28.9383,26.881195,88.8045,125.5212,NaN,0.0,25.728,,16 / 32,345598,2021-06-14 12:06:22:100
-1.220444,4.958359,9.809219,-0.07373,-0.079254,-0.073502,-35.4172,-22.4655,-35.9085,26.881195,88.8045,125.5212,NaN,0.0,25.728,,16 / 32,346098,2021-06-14 12:06:22:600
0.3741,4.953568,8.454102,0.021973,0.263855,0.51088,-36.2091,-19.339,-34.0378,26.881195,88.8045,125.5212,NaN,0.0,25.728,,16 / 32,346598,2021-06-14 12:06:23:100
-1.253952,4.225739,7.89386,-0.101242,0.241837,0.808441,-33.3069,-16.4429,-39.0778,26.881195,88.8045,125.5212,NaN,0.0,25.728,,16 / 32,347098,2021-06-14 12:06:23:600
0.340576,4.503464,9.004776,-0.190018,-0.184982,-0.032578,-33.3084,-11.1481,-38.4415,26.881195,88.8045,125.5212,NaN,0.0,25.728,,16 / 32,347598,2021-06-14 12:06:24:100
-1.689697,5.815476,8.382279,0.026855,0.437317,0.534149,-32.7805,-10.4248,-41.0019,26.881195,88.8045,125.5212,NaN,0.0,25.728,,16 / 32,348098,2021-06-14 12:06:24:600
-0.181351,3.91449,7.237854,-0.182739,0.853394,1.12323,-26.1871,2.1088,-47.5128,26.881195,88.8045,125.5212,NaN,0.0,25.728,,16 / 32,348600,2021-06-14 12:06:25:102
-0.530899,3.890549,7.884293,0.287842,-0.263458,-0.122772,-30.9372,8.1116,-44.281,26.881195,88.8045,125.5212,NaN,0.0,25.728,,16 / 32,349098,2021-06-14 12:06:25:600
-0.736801,4.474732,9.47403,0.238571,0.472122,1.221863,-14.3173,19.7098,-54.4556,26.881195,88.8045,125.5212,NaN,0.0,25.728,,17 / 32,349598,2021-06-14 12:06:26:100
-0.234024,3.75647,8.631271,-0.010162,0.537186,0.774719,9.1644,10.8704,-57.4921,26.881195,88.8045,125.5212,NaN,0.0,25.728,,17 / 32,350098,2021-06-14 12:06:26:600
-0.133469,4.216156,8.72226,0.42952,-0.219421,0.088242,11.2747,12.561,-56.3934,26.881195,88.8045,125.5212,NaN,0.0,25.728,,19 / 31,350598,2021-06-14 12:06:27:100
-1.134247,5.959137,9.497971,0.159042,0.008377,-0.144531,9.9564,13.2797,-55.7312,26.881195,88.8045,125.5212,NaN,0.0,25.728,,19 / 31,351099,2021-06-14 12:06:27:601
-1.340149,3.435639,8.846756,-0.573685,-0.118042,-0.171783,11.5387,17.3752,-52.5955,26.881195,88.8045,125.5212,NaN,0.0,25.728,,19 / 32,351598,2021-06-14 12:06:28:100
0.948715,2.789215,8.099762,0.049759,-0.377884,0.236221,-3.7643,24.5529,-51.9043,26.881195,88.8045,125.5212,NaN,0.0,25.728,,19 / 32,352098,2021-06-14 12:06:28:600
3.031662,-2.15242,12.859436,-1.18222,-1.277405,-0.117538,-4.2938,32.2525,-40.1184,26.881195,88.8045,125.5212,NaN,0.0,25.728,,19 / 31,352598,2021-06-14 12:06:29:100
2.567185,-4.857864,10.64241,0.175278,0.133621,-0.223801,-7.46,38.9832,-27.1118,26.881195,88.8045,125.5212,NaN,0.0,25.728,,19 / 31,353098,2021-06-14 12:06:29:600
-0.981018,-0.332825,6.457337,0.741821,2.05838,-1.126343,-16.6931,33.1818,-34.8419,26.881195,88.8045,125.5212,NaN,0.0,25.728,,18 / 32,353597,2021-06-14 12:06:30:099
-1.933914,0.576965,8.147644,0.439301,0.498123,-0.397354,-15.1093,25.2441,-43.8736,26.881195,88.8045,125.5212,NaN,0.0,25.728,,18 / 32,354098,2021-06-14 12:06:30:600
-1.373672,1.256928,12.284821,0.313065,-1.867645,-0.940369,-31.9931,15.5701,-35.0769,26.881195,88.8045,125.5212,NaN,0.0,25.728,,18 / 32,354597,2021-06-14 12:06:31:099
1.633453,1.098908,9.723038,0.031021,0.209702,0.584839,-32.785,16.5298,-35.8826,26.881195,88.8045,125.5212,NaN,0.0,25.728,,18 / 32,355098,2021-06-14 12:06:31:600
-1.498169,1.668732,5.925827,-0.37262,0.66066,0.947815,-17.4835,25.4776,-45.3384,26.881195,88.8045,125.5212,NaN,0.0,25.728,,18 / 31,355598,2021-06-14 12:06:32:100
-0.71286,0.179535,-0.126709,6.320267,10.181549,-3.229889,-22.7631,38.4598,-11.9736,26.881195,88.8045,125.5212,NaN,0.0,25.728,,18 / 31,356099,2021-06-14 12:06:32:601
-0.11911,-0.261002,9.665573,9.31E-4,2.9E-4,6.26E-4,-19.8593,29.0817,-39.267,26.881195,88.8045,125.5212,NaN,0.0,25.728,,17 / 32,356597,2021-06-14 12:06:33:099
-0.095169,-0.289734,9.655991,5.8E-4,7.32E-4,7.93E-4,-19.5953,28.8406,-37.1551,26.881195,88.8045,125.5212,NaN,0.0,25.728,,17 / 32,357098,2021-06-14 12:06:33:600
-0.11911,-0.27536,9.636841,9.46E-4,5.49E-4,7.02E-4,-19.3314,30.2856,-37.8571,26.881195,88.8045,125.5212,NaN,0.0,25.728,,17 / 32,357597,2021-06-14 12:06:34:099
-0.109528,-0.270584,9.675156,1.37E-4,0.001175,7.93E-4,-19.3314,28.6011,-36.5631,26.881195,88.8045,125.5212,NaN,0.0,25.728,,17 / 32,358097,2021-06-14 12:06:34:599
-0.147827,-0.265793,9.670364,5.8E-4,1.98E-4,0.001236,-19.8593,29.0817,-38.2538,26.881195,88.8045,125.5212,NaN,0.0,25.728,,17 / 32,358598,2021-06-14 12:06:35:100
-0.123886,-0.251419,9.675156,5.8E-4,1.07E-4,4.43E-4,-19.8593,29.0817,-36.2289,26.881195,88.8045,125.5212,NaN,0.0,25.728,,17 / 32,359097,2021-06-14 12:06:35:599
-0.123886,-0.265793,9.665573,7.63E-4,7.32E-4,8.85E-4,-19.3314,29.3228,-37.6953,26.881195,88.8045,125.5212,NaN,0.0,25.728,,18 / 32,359597,2021-06-14 12:06:36:099
-0.109528,-0.280151,9.651199,9.31E-4,-1.53E-4,7.93E-4,-19.5953,29.5639,-39.3005,26.881195,88.8045,125.5212,NaN,0.0,25.728,,18 / 32,360098,2021-06-14 12:06:36:600
-0.133469,-0.251419,9.684723,9.46E-4,7.32E-4,5.34E-4,-19.0674,29.0833,-36.0916,26.881195,88.8045,125.5212,NaN,0.0,25.728,,17 / 32,360598,2021-06-14 12:06:37:100
-0.109528,-0.294525,9.665573,7.63E-4,1.98E-4,0.001419,-20.1233,29.3213,-35.8078,26.881195,88.8045,125.5212,NaN,0.0,25.728,,17 / 32,361097,2021-06-14 12:06:37:599
-0.099945,-0.280151,9.665573,2.29E-4,4.73E-4,0.001236,-19.5953,30.2856,-38.4079,26.881195,88.8045,125.5212,NaN,0.0,25.728,,16 / 32,361597,2021-06-14 12:06:38:099
-0.104736,-0.280151,9.655991,8.54E-4,5.49E-4,5.34E-4,-18.8034,29.8065,-36.6714,26.881195,88.8045,125.5212,NaN,0.0,25.728,,16 / 32,362098,2021-06-14 12:06:38:600
-0.128677,-0.27536,9.651199,5.8E-4,0.001083,6.26E-4,-19.5953,29.8035,-38.3286,26.881195,88.8045,125.5212,NaN,0.0,25.728,,14 / 32,362598,2021-06-14 12:06:39:100
-0.123886,-0.25621,9.665573,6.71E-4,9.16E-4,9.77E-4,-18.5394,29.0848,-37.5183,26.881195,88.8045,125.5212,NaN,0.0,25.728,,14 / 32,363098,2021-06-14 12:06:39:600
-0.133469,-0.284943,9.679932,0.001556,2.9E-4,0.001236,-19.3314,28.8422,-37.616,26.881195,88.8045,125.5212,NaN,0.0,25.728,,8 / 31,363598,2021-06-14 12:06:40:100
-0.109528,-0.241852,9.679932,0.001022,0.001617,7.02E-4,-18.8034,29.5654,-38.6566,26.881195,88.8045,125.5212,NaN,0.0,25.728,,8 / 31,364098,2021-06-14 12:06:40:600
-0.166992,-0.251419,9.406998,4.12E-4,0.001007,0.00116,-19.3314,29.5639,-36.7233,26.881195,88.8045,125.5212,NaN,0.0,25.728,,8 / 32,364599,2021-06-14 12:06:41:101
-0.128677,-0.251419,9.684723,0.001328,0.002213,-1.22E-4,-19.0674,29.5654,-37.6907,26.881195,88.8045,125.5212,NaN,0.0,25.728,,8 / 32,365098,2021-06-14 12:06:41:600
-0.114319,-0.265793,9.670364,0.0,1.68E-4,-1.22E-4,-18.8034,29.5654,-38.15,26.881195,88.8045,125.5212,NaN,0.0,25.728,,8 / 32,365599,2021-06-14 12:06:42:101
-0.574005,-0.476486,9.732605,0.051834,0.182144,0.01152,-19.0674,28.1204,-35.4233,26.881195,88.8045,125.5212,NaN,0.0,25.728,,8 / 32,366098,2021-06-14 12:06:42:600
2.337341,-1.151642,11.116455,1.411743,0.944885,0.078003,-14.3188,31.0226,-38.118,26.881195,88.8045,125.5212,NaN,0.0,25.728,,13 / 32,366598,2021-06-14 12:06:43:100
-0.047272,4.355026,6.49086,0.196976,0.681671,0.256439,10.4828,16.8915,-51.1795,26.881195,88.8045,125.5212,NaN,0.0,25.728,,13 / 32,367097,2021-06-14 12:06:43:599
-1.804626,4.149124,9.08139,0.136353,-1.036072,-0.609711,0.7217,11.8103,-55.0705,26.881195,88.8045,125.5212,NaN,0.0,25.728,,14 / 32,367597,2021-06-14 12:06:44:099
1.91597,5.815476,7.209122,0.263733,0.5858,0.337402,13.1226,10.1593,-56.6833,26.881195,88.8045,125.5212,NaN,0.0,25.728,,14 / 32,368098,2021-06-14 12:06:44:600
0.259186,1.103699,15.761215,-0.63855,-1.002243,-0.505234,10.2188,20.2591,-50.7751,26.881195,88.8045,125.5212,NaN,0.0,25.728,,14 / 32,368597,2021-06-14 12:06:45:099
3.778656,-4.177917,10.096527,-0.585449,-0.630829,-0.724319,-2.7115,38.9969,-32.3608,26.881195,88.8045,125.5212,NaN,0.0,25.728,,14 / 32,369098,2021-06-14 12:06:45:600
